File: SRC_files/py_figures/XRD_data/n1000_p10.txt
0.0 0.0
0.00200043 2.24408e-16
0.00400087 7.14654e-17
0.0060013 1.01739e-16
0.00800173 1.30562e-17
0.0100022 5.94147e-18
0.0120026 0.0
0.014003 0.0
0.0160035 0.0
0.0180039 0.0
0.0200043 0.0
0.0220048 0.0
0.0240052 9.15578e-18
0.0260056 2.68631e-18
0.0280061 1.67036e-18
0.0300065 2.33937e-18
0.0320069 1.55478e-18
0.0340074 2.25254e-18
0.0360078 0.0
0.0380082 0.0
0.0400087 0.0
0.0420091 0.0
0.0440095 0.0
0.04601 0.0
0.0480104 1.9709e-18
0.0500108 1.93737e-18
0.0520113 1.14075e-18
0.0540117 5.75448e-19
0.0560121 3.45233e-18
0.0580126 0.0
0.060013 0.0
0.0620134 0.0
0.0640139 0.0
0.0660143 0.0
0.0680147 0.0
0.0700152 2.0821e-18
0.0720156 9.13101e-20
0.074016 8.56617e-19
0.0760165 8.76053e-19
0.0780169 5.65085e-19
0.0800173 3.37883e-18
0.0820178 0.0
0.0840182 0.0
0.0860186 0.0
0.0880191 0.0
0.0900195 0.0
0.0920199 0.0
0.0940204 1.20131e-19
0.0960208 5.91011e-19
0.0980212 9.05666e-20
0.100022 3.11665e-20
0.102022 3.91283e-19
0.104023 0.0
0.106023 0.0
0.108023 0.0
0.110024 0.0
0.112024 0.0
0.114025 0.0
0.116025 5.21419e-19
0.118026 2.34433e-18
0.120026 9.38452e-19
0.122026 1.0005e-18
0.124027 1.13443e-19
0.126027 5.09412e-19
0.128028 0.0
0.130028 0.0
0.132029 0.0
0.134029 0.0
0.136029 0.0
0.13803 0.0
0.14003 3.59396e-19
0.142031 3.42427e-18
0.144031 1.07072e-18
0.146032 6.07253e-19
0.148032 1.54714e-19
0.150033 0.0
0.152033 0.0
0.154033 0.0
0.156034 0.0
0.158034 0.0
0.160035 0.0
0.162035 1.32302e-18
0.164036 9.75101e-19
0.166036 1.7991e-20
0.168036 1.46293e-18
0.170037 3.02165e-18
0.172037 2.38009e-19
0.174038 0.0
0.176038 0.0
0.178039 0.0
0.180039 0.0
0.182039 0.0
0.18404 0.0
0.18604 2.09548e-16
0.188041 7.3557e-17
0.190041 3.58504e-18
0.192042 3.61336e-19
0.194042 3.15167e-18
0.196042 0.0
0.198043 0.0
0.200043 0.0
0.202044 0.0
0.204044 0.0
0.206045 0.0
0.208045 5.15875e-19
0.210046 3.06397e-19
0.212046 2.8579e-19
0.214046 3.84465e-19
0.216047 4.50149e-19
0.218047 3.43253e-19
0.220048 0.0
0.222048 0.0
0.224049 0.0
0.226049 0.0
0.228049 0.0
0.23005 0.0
0.23205 4.69343e-19
0.234051 2.09104e-18
0.236051 6.05199e-19
0.238052 1.46481e-18
0.240052 1.8779e-19
0.242052 0.0
0.244053 0.0
0.246053 0.0
0.248054 0.0
0.250054 0.0
0.252055 0.0
0.254055 3.09701e-19
0.256055 8.34603e-19
0.258056 8.8497e-20
0.260056 1.47022e-18
0.262057 1.61437e-19
0.264057 1.11158e-18
0.266058 0.0
0.268058 0.0
0.270059 0.0
0.272059 0.0
0.274059 0.0
0.27606 0.0
0.27806 2.05712e-19
0.280061 2.39391e-19
0.282061 3.08084e-19
0.284062 1.25956e-18
0.286062 8.86589e-19
0.288062 1.99002e-18
0.290063 0.0
0.292063 0.0
0.294064 0.0
0.296064 0.0
0.298065 0.0
0.300065 0.0
0.302065 9.0075e-19
0.304066 9.1031e-19
0.306066 1.01063e-19
0.308067 9.42013e-18
0.310067 4.74809e-19
0.312068 0.0
0.314068 0.0
0.316068 0.0
0.318069 0.0
0.320069 0.0
0.32207 0.0
0.32407 1.2848e-19
0.326071 1.49963e-19
0.328071 9.72251e-20
0.330072 2.13359e-19
0.332072 8.45016e-19
0.334072 1.33684e-19
0.336073 0.0
0.338073 0.0
0.340074 0.0
0.342074 0.0
0.344075 0.0
0.346075 0.0
0.348075 1.96411e-19
0.350076 3.51081e-19
0.352076 3.82698e-19
0.354077 7.73152e-20
0.356077 2.24739e-19
0.358078 0.0
0.360078 0.0
0.362078 0.0
0.364079 0.0
0.366079 0.0
0.36808 0.0
0.37008 9.78578e-18
0.372081 2.34055e-18
0.374081 1.39459e-17
0.376082 3.10619e-18
0.378082 1.00799e-18
0.380082 3.24704e-18
0.382083 0.0
0.384083 0.0
0.386084 0.0
0.388084 0.0
0.390085 0.0
0.392085 0.0
0.394085 6.47978e-21
0.396086 7.95888e-19
0.398086 1.39508e-18
0.400087 6.31182e-19
0.402087 2.99656e-19
0.404088 0.0
0.406088 0.0
0.408088 0.0
0.410089 0.0
0.412089 0.0
0.41409 0.0
0.41609 2.80275e-19
0.418091 6.53767e-20
0.420091 1.69102e-19
0.422091 2.58816e-19
0.424092 5.13737e-19
0.426092 2.77958e-18
0.428093 0.0
0.430093 0.0
0.432094 0.0
0.434094 0.0
0.436095 0.0
0.438095 0.0
0.440095 2.83695e-19
0.442096 2.79793e-20
0.444096 2.99001e-19
0.446097 3.25651e-19
0.448097 1.42146e-19
0.450098 0.0
0.452098 0.0
0.454098 0.0
0.456099 0.0
0.458099 0.0
0.4601 0.0
0.4621 2.1619e-19
0.464101 2.80654e-19
0.466101 7.78064e-19
0.468101 1.09457e-19
0.470102 1.62893e-20
0.472102 3.90574e-19
0.474103 0.0
0.476103 0.0
0.478104 0.0
0.480104 0.0
0.482104 0.0
0.484105 0.0
0.486105 2.31012e-19
0.488106 4.28206e-19
0.490106 3.36162e-19
0.492107 2.19767e-18
0.494107 8.2511e-18
0.496108 0.0
0.498108 0.0
0.500108 0.0
0.502109 0.0
0.504109 0.0
0.50611 0.0
0.50811 4.47481e-19
0.510111 1.7958e-19
0.512111 6.82303e-20
0.514111 3.40608e-20
0.516112 9.30368e-19
0.518112 7.0297e-20
0.520113 0.0
0.522113 0.0
0.524114 0.0
0.526114 0.0
0.528114 0.0
0.530115 0.0
0.532115 2.15167e-19
0.534116 4.79587e-19
0.536116 6.08083e-20
0.538117 2.20489e-21
0.540117 1.62127e-19
0.542117 5.77315e-20
0.544118 0.0
0.546118 0.0
0.548119 0.0
0.550119 0.0
0.55212 0.0
0.55412 0.0
0.556121 1.27619e-18
0.558121 8.21489e-19
0.560121 2.08547e-19
0.562122 4.4305e-18
0.564122 3.43111e-20
0.566123 0.0
0.568123 0.0
0.570124 8.3879e-21
0.572124 9.39254e-21
0.574124 8.6358e-21
0.576125 7.87033e-21
0.578125 9.38356e-20
0.580126 1.51431e-18
0.582126 2.45491e-19
0.584127 7.4742e-19
0.586127 1.87365e-19
0.588127 2.27599e-19
0.590128 6.11623e-21
0.592128 1.11807e-20
0.594129 1.85346e-21
0.596129 2.54779e-20
0.59813 5.31851e-20
0.60013 2.61758e-20
0.60213 6.5174e-19
0.604131 5.44156e-19
0.606131 1.78025e-19
0.608132 2.42695e-19
0.610132 9.44284e-19
0.612133 5.0801e-20
0.614133 6.37686e-20
0.616134 1.16562e-19
0.618134 1.40181e-19
0.620134 2.46516e-19
0.622135 1.94077e-19
0.624135 8.89021e-20
0.626136 2.62867e-19
0.628136 1.06263e-18
0.630137 1.05622e-18
0.632137 8.42874e-20
0.634137 5.92678e-19
0.636138 1.91728e-19
0.638138 2.62157e-20
0.640139 1.04247e-20
0.642139 2.83767e-20
0.64414 1.04619e-20
0.64614 2.35765e-20
0.64814 5.49016e-19
0.650141 3.9437e-19
0.652141 1.06822e-18
0.654142 1.61525e-18
0.656142 1.38011e-18
0.658143 5.85592e-20
0.660143 1.10174e-20
0.662144 2.55022e-20
0.664144 4.04935e-20
0.666144 4.46628e-20
0.668145 2.9607e-20
0.670145 4.44448e-19
0.672146 7.90111e-18
0.674146 3.39939e-17
0.676147 5.75933e-19
0.678147 3.44874e-19
0.680147 1.98109e-18
0.682148 1.28189e-19
0.684148 1.12781e-19
0.686149 3.0142e-20
0.688149 0.0
0.69015 3.38199e-20
0.69215 6.07011e-20
0.69415 1.01537e-19
0.696151 3.14768e-19
0.698151 5.0411e-19
0.700152 2.10763e-18
0.702152 1.45927e-18
0.704153 1.02609e-20
0.706153 2.4326e-20
0.708153 0.0
0.710154 1.33499e-19
0.712154 4.36277e-20
0.714155 1.98505e-19
0.716155 5.87187e-19
0.718156 3.48037e-19
0.720156 5.52832e-19
0.722157 3.15683e-19
0.724157 1.89001e-19
0.726157 2.74223e-19
0.728158 2.19145e-20
0.730158 2.20577e-19
0.732159 1.99919e-19
0.734159 1.12723e-19
0.73616 5.93209e-20
0.73816 4.40212e-20
0.74016 5.26802e-19
0.742161 1.70509e-18
0.744161 1.10252e-18
0.746162 4.64252e-18
0.748162 3.61834e-18
0.750163 2.85203e-19
0.752163 8.87258e-20
0.754163 1.10398e-19
0.756164 0.0
0.758164 0.0
0.760165 3.41875e-20
0.762165 4.99578e-19
0.764166 5.98451e-19
0.766166 2.19202e-18
0.768166 1.07223e-18
0.770167 8.69722e-19
0.772167 2.81888e-19
0.774168 5.66534e-20
0.776168 4.30423e-19
0.778169 6.6337e-20
0.780169 8.36423e-20
0.78217 0.0
0.78417 5.7456e-20
0.78617 1.89655e-18
0.788171 1.50282e-17
0.790171 1.08027e-18
0.792172 1.12024e-18
0.794172 3.45396e-19
0.796173 1.72569e-18
0.798173 0.0
0.800173 4.2278e-18
0.802174 1.09635e-19
0.804174 3.04863e-20
0.806175 0.0
0.808175 1.16846e-19
0.810176 1.37094e-19
0.812176 1.22065e-18
0.814176 8.80482e-19
0.816177 1.01935e-18
0.818177 1.88634e-18
0.820178 7.26975e-20
0.822178 1.077e-19
0.824179 0.0
0.826179 8.97382e-20
0.828179 3.8281e-20
0.83018 0.0
0.83218 2.39944e-19
0.834181 1.296e-18
0.836181 1.27606e-18
0.838182 1.13203e-19
0.840182 6.65736e-21
0.842183 2.54095e-18
0.844183 4.8556e-20
0.846183 6.83175e-20
0.848184 8.89049e-20
0.850184 0.0
0.852185 6.97192e-20
0.854185 0.0
0.856186 1.30374e-19
0.858186 1.16035e-17
0.860186 1.30184e-17
0.862187 1.21174e-18
0.864187 1.14124e-18
0.866188 4.33705e-20
0.868188 0.0
0.870189 1.96198e-20
0.872189 0.0
0.874189 6.76257e-20
0.87619 0.0
0.87819 5.52023e-19
0.880191 6.34747e-19
0.882191 5.54319e-19
0.884192 5.98824e-18
0.886192 9.17789e-19
0.888192 1.64849e-19
0.890193 3.88573e-19
0.892193 0.0
0.894194 6.80293e-20
0.896194 0.0
0.898195 2.62214e-19
0.900195 0.0
0.902196 5.00762e-19
0.904196 1.16943e-18
0.906196 7.48241e-19
0.908197 1.3014e-18
0.910197 6.56949e-19
0.912198 5.47697e-20
0.914198 0.0
0.916199 3.24679e-19
0.918199 0.0
0.920199 9.59183e-20
0.9222 0.0
0.9242 1.59021e-18
0.926201 3.93593e-19
0.928201 8.55126e-19
0.930202 3.11727e-18
0.932202 1.70602e-18
0.934202 1.34705e-18
0.936203 0.0
0.938203 2.78613e-19
0.940204 2.18492e-19
0.942204 0.0
0.944205 5.96806e-20
0.946205 0.0
0.948205 1.19116e-19
0.950206 1.44849e-18
0.952206 2.78461e-19
0.954207 1.05719e-18
0.956207 3.33404e-18
0.958208 0.0
0.960208 1.78053e-18
0.962209 0.0
0.964209 3.43823e-20
0.966209 2.98959e-20
0.96821 0.0
0.97021 3.07073e-19
0.972211 1.04387e-18
0.974211 4.19961e-18
0.976212 1.01543e-18
0.978212 2.12666e-19
0.980212 5.43877e-19
0.982213 5.40479e-19
0.984213 1.29587e-18
0.986214 5.41222e-20
0.988214 2.39857e-19
0.990215 3.40889e-19
0.992215 7.78332e-19
0.994215 1.24227e-18
0.996216 2.04673e-18
0.998216 4.55226e-19
1.00022 1.03327e-18
1.00222 1.5005e-19
1.00422 5.11913e-19
1.00622 4.16768e-19
1.00822 1.51291e-19
1.01022 1.44634e-19
1.01222 6.88093e-19
1.01422 9.70786e-19
1.01622 1.25698e-18
1.01822 1.90735e-19
1.02022 2.94237e-18
1.02222 1.2513e-18
1.02422 4.33719e-19
1.02622 1.01898e-17
1.02822 3.13898e-20
1.03022 1.40402e-19
1.03222 4.36712e-19
1.03422 1.34921e-19
1.03622 1.88449e-19
1.03823 1.25444e-19
1.04023 2.30648e-18
1.04223 3.64651e-17
1.04423 1.38351e-16
1.04623 2.54158e-17
1.04823 2.65307e-17
1.05023 6.62673e-18
1.05223 9.04191e-19
1.05423 6.0364e-19
1.05623 7.63191e-19
1.05823 1.07352e-18
1.06023 6.3874e-20
1.06223 4.54764e-19
1.06423 2.69522e-18
1.06623 3.90354e-19
1.06823 9.64835e-19
1.07023 1.97791e-17
1.07223 6.22376e-19
1.07423 1.03747e-18
1.07623 3.26665e-19
1.07823 4.57634e-19
1.08023 9.82466e-20
1.08223 7.7207e-19
1.08423 2.10586e-19
1.08624 1.36006e-18
1.08824 2.24059e-18
1.09024 6.25926e-19
1.09224 5.44001e-18
1.09424 4.82787e-18
1.09624 9.72561e-19
1.09824 8.14978e-20
1.10024 3.74323e-20
1.10224 3.77e-18
1.10424 1.29572e-19
1.10624 5.97098e-20
1.10824 3.12235e-18
1.11024 1.03768e-18
1.11224 2.72858e-18
1.11424 1.77299e-19
1.11624 4.60627e-19
1.11824 8.83474e-19
1.12024 9.13572e-20
1.12224 9.78961e-20
1.12424 1.86936e-19
1.12624 9.28422e-19
1.12824 1.11837e-18
1.13024 4.86045e-19
1.13225 5.77409e-20
1.13425 1.09823e-18
1.13625 2.35071e+07
1.13825 1.81768e+09
1.14025 2.76109e+07
1.14225 2.36218e+07
1.14425 2.15236e+07
1.14625 2.98912e+07
1.14825 2.08501e+07
1.15025 1.07808e+07
1.15225 1.4147e+07
1.15425 1.06144e+07
1.15625 1.31195e+07
1.15825 8.33153e+06
1.16025 1.22213e+07
1.16225 1.55671e+07
1.16425 1.29614e+07
1.16625 1.15899e+07
1.16825 5.58156e+06
1.17025 1.16369e+07
1.17225 9.12072e+06
1.17425 6.36532e+06
1.17625 8.90069e+06
1.17826 1.65084e+07
1.18026 6.97355e+06
1.18226 8.4879e+06
1.18426 3.34803e+06
1.18626 5.52227e+06
1.18826 6.62048e+06
1.19026 7.20293e+06
1.19226 4.04186e+06
1.19426 6.61961e+06
1.19626 4.44423e+06
1.19826 1.27207e+07
1.20026 1.41154e+06
1.20226 2.44492e+06
1.20426 1.05046e+07
1.20626 8.38875e+06
1.20826 6.66472e+06
1.21026 2.51747e+06
1.21226 5.38763e+06
1.21426 2.1816e+06
1.21626 8.19058e+06
1.21826 5.14752e+06
1.22026 4.37375e+06
1.22226 4.17518e+06
1.22427 3.42392e+06
1.22627 9.93811e+06
1.22827 2.48626e+06
1.23027 2.1925e+06
1.23227 2.38141e+06
1.23427 5.26434e+06
1.23627 2.06091e+06
1.23827 2.45095e+06
1.24027 5.13543e+06
1.24227 5.26871e+06
1.24427 3.67489e+06
1.24627 3.26724e+06
1.24827 2.44883e+06
1.25027 3.57803e+06
1.25227 4.22182e+06
1.25427 7.3907e+06
1.25627 2.10163e+06
1.25827 5.28527e+06
1.26027 3.35855e+06
1.26227 4.28347e+06
1.26427 3.28781e+06
1.26627 2.46226e+06
1.26827 2.19142e+06
1.27028 4.87312e+06
1.27228 240077
1.27428 3.02737e+06
1.27628 1.30903e+06
1.27828 3.50569e+06
1.28028 3.11142e+06
1.28228 3.5262e+06
1.28428 1.67473e+06
1.28628 3.7733e+06
1.28828 3.95212e+06
1.29028 6.87277e+06
1.29228 2.9163e+06
1.29428 2.85508e+06
1.29628 1.39567e+06
1.29828 6.18588e+06
1.30028 3.7568e+06
1.30228 3.50479e+06
1.30428 2.06215e+06
1.30628 729177
1.30828 4.5516e+06
1.31028 972959
1.31228 1.17246e+06
1.31428 1.23411e+06
1.31629 2.80459e+06
1.31829 3.0696e+06
1.32029 2.91035e+06
1.32229 3.63628e+06
1.32429 401089
1.32629 3.31551e+06
1.32829 2.07736e+09
1.33029 1.90424e+06
1.33229 1.38725e+06
1.33429 1.71992e+06
1.33629 2.22052e+06
1.33829 1.68991e+06
1.34029 4.50075e+06
1.34229 2.39344e+06
1.34429 823835
1.34629 1.215e+06
1.34829 1.00149e+06
1.35029 1.67904e+06
1.35229 3.47614e+06
1.35429 1.42573e+06
1.35629 1.43877e+06
1.35829 1.52416e+06
1.36029 1.9445e+06
1.3623 819293
1.3643 2.5506e+06
1.3663 587751
1.3683 396190
1.3703 2.57269e+06
1.3723 1.96495e+06
1.3743 4.88734e+06
1.3763 775816
1.3783 2.92144e+06
1.3803 2.17715e+06
1.3823 874697
1.3843 212728
1.3863 1.92791e+06
1.3883 1.65008e+06
1.3903 663901
1.3923 2.47351e+06
1.3943 1.5226e+06
1.3963 2.13516e+06
1.3983 975501
1.4003 355718
1.4023 909274
1.4043 1.58292e+06
1.4063 333532
1.40831 1.72046e+06
1.41031 613826
1.41231 3.45731e+06
1.41431 670700
1.41631 552599
1.41831 2.11981e+06
1.42031 2.57193e+06
1.42231 3.29966e+06
1.42431 2.59143e+06
1.42631 898502
1.42831 1.27853e+06
1.43031 2.209e+06
1.43231 3.05876e+06
1.43431 3.79675e+06
1.43631 2.19764e+06
1.43831 131129
1.44031 877614
1.44231 574770
1.44431 1.32375e+06
1.44631 1.36344e+06
1.44831 1.62813e+06
1.45031 349810
1.45231 544802
1.45432 488586
1.45632 1.75564e+06
1.45832 1.07101e+06
1.46032 175233
1.46232 549228
1.46432 557665
1.46632 9110.33
1.46832 777799
1.47032 683627
1.47232 1.09916e+06
1.47432 684859
1.47632 891677
1.47832 2414.36
1.48032 397104
1.48232 398470
1.48432 97080.3
1.48632 496916
1.48832 384319
1.49032 1.83972e+06
1.49232 1.7136e+06
1.49432 1.19444e+06
1.49632 733112
1.49832 1.53102e+06
1.50033 936890
1.50233 603727
1.50433 1.66423e+06
1.50633 1.16586e+06
1.50833 470232
1.51033 774019
1.51233 435943
1.51433 718247
1.51633 1.13889e+06
1.51833 296900
1.52033 617267
1.52233 75668.8
1.52433 2.12467e+06
1.52633 449686
1.52833 2.11123e+06
1.53033 663308
1.53233 1.15528e+06
1.53433 486740
1.53633 398323
1.53833 1.15912e+06
1.54033 147770
1.54233 714227
1.54433 711040
1.54634 676741
1.54834 305252
1.55034 906628
1.55234 1.27579e+06
1.55434 1.25878e+06
1.55634 428034
1.55834 566512
1.56034 642515
1.56234 1.34355e+06
1.56434 887538
1.56634 328834
1.56834 1.53523e+06
1.57034 2.59135e+06
1.57234 282223
1.57434 151190
1.57634 391446
1.57834 671781
1.58034 1.76997e+06
1.58234 988777
1.58434 256946
1.58634 927307
1.58834 3.07222e+06
1.59034 2.21352e+06
1.59235 534848
1.59435 1.25561e+06
1.59635 964777
1.59835 1.00105e+06
1.60035 715545
1.60235 335298
1.60435 550965
1.60635 300955
1.60835 681580
1.61035 549140
1.61235 622910
1.61435 230185
1.61635 846574
1.61835 676180
1.62035 332491
1.62235 855795
1.62435 510269
1.62635 1.228e+06
1.62835 1.93205e+06
1.63035 118467
1.63235 279765
1.63435 1.53847e+06
1.63635 555600
1.63836 178290
1.64036 1.11725e+06
1.64236 2.7584e+06
1.64436 572630
1.64636 811945
1.64836 706656
1.65036 628204
1.65236 1.1759e+06
1.65436 44768.6
1.65636 2.1494e+06
1.65836 433364
1.66036 779816
1.66236 1.32593e+06
1.66436 1.99065e+06
1.66636 130988
1.66836 383986
1.67036 229816
1.67236 2.14969e+06
1.67436 2.04876e+06
1.67636 531637
1.67836 1.59642e+06
1.68036 428427
1.68236 507601
1.68437 376053
1.68637 215660
1.68837 411034
1.69037 233798
1.69237 525723
1.69437 279677
1.69637 1.0276e+06
1.69837 602301
1.70037 27094.6
1.70237 731497
1.70437 556592
1.70637 402352
1.70837 289117
1.71037 189846
1.71237 1.20028e+06
1.71437 61244.3
1.71637 608273
1.71837 416517
1.72037 639988
1.72237 819204
1.72437 833839
1.72637 522288
1.72837 428996
1.73038 266632
1.73238 976201
1.73438 497380
1.73638 343656
1.73838 564397
1.74038 90337.6
1.74238 896653
1.74438 13665.3
1.74638 1.20793e+06
1.74838 54401.6
1.75038 1.23653e+06
1.75238 960932
1.75438 1.45776e+06
1.75638 52611.2
1.75838 419045
1.76038 398418
1.76238 671068
1.76438 83647.9
1.76638 3.24182e+06
1.76838 232243
1.77038 346678
1.77238 494205
1.77438 2.04184e+06
1.77638 419686
1.77839 526258
1.78039 484255
1.78239 186343
1.78439 409205
1.78639 1.05814e+06
1.78839 36645.2
1.79039 332255
1.79239 263452
1.79439 1.15729e+06
1.79639 354899
1.79839 180812
1.80039 486806
1.80239 19094.8
1.80439 286814
1.80639 497231
1.80839 60764.6
1.81039 258212
1.81239 247373
1.81439 381652
1.81639 731766
1.81839 314916
1.82039 489720
1.82239 466490
1.8244 317521
1.8264 272867
1.8284 52404.2
1.8304 54015.9
1.8324 187872
1.8344 339506
1.8364 168182
1.8384 7529.04
1.8404 790132
1.8424 593458
1.8444 497046
1.8464 1.02227e+06
1.8484 218123
1.8504 1.03117e+06
1.8524 106002
1.8544 436420
1.8564 425953
1.8584 67114.6
1.8604 519898
1.8624 256171
1.8644 82428.8
1.8664 370916
1.8684 132235
1.87041 1.55813e+06
1.87241 169890
1.87441 615289
1.87641 259379
1.87841 108670
1.88041 398551
1.88241 705229
1.88441 1.77527e+06
1.88641 449196
1.88841 167850
1.89041 759942
1.89241 233604
1.89441 429871
1.89641 450849
1.89841 3396.91
1.90041 88273.5
1.90241 350876
1.90441 243418
1.90641 381540
1.90841 126395
1.91041 934104
1.91241 134501
1.91441 121638
1.91642 517127
1.91842 81306.3
1.92042 639338
1.92242 157553
1.92442 39742
1.92642 564914
1.92842 1.31373e+06
1.93042 25623.6
1.93242 717193
1.93442 2.47497e-19
1.93642 314303
1.93842 625420
1.94042 160998
1.94242 927343
1.94442 432032
1.94642 225400
1.94842 822735
1.95042 460647
1.95242 366797
1.95442 616648
1.95642 401256
1.95842 189096
1.96042 149764
1.96243 2.77673e-19
1.96443 104719
1.96643 1.01296e+06
1.96843 2.73756e-18
1.97043 213638
1.97243 169785
1.97443 0.0122906
1.97643 1.28977e+06
1.97843 86862.2
1.98043 270639
1.98243 490283
1.98443 80149.2
1.98643 20244.3
1.98843 283067
1.99043 303632
1.99243 4.95047e+08
1.99443 673728
1.99643 271035
1.99843 0.00646515
2.00043 449077
2.00243 627905
2.00443 0.0117753
2.00643 287079
2.00844 275700
2.01044 0.0177427
2.01244 64838.4
2.01444 215732
2.01644 36458.6
2.01844 186801
2.02044 334453
2.02244 276154
2.02444 136929
2.02644 522170
2.02844 62574.9
2.03044 215696
2.03244 379956
2.03444 365168
2.03644 0.012573
2.03844 110522
2.04044 308979
2.04244 39584.1
2.04444 135836
2.04644 180446
2.04844 267567
2.05044 53917.1
2.05244 759317
2.05445 389001
2.05645 0.00551986
2.05845 47459.7
2.06045 215835
2.06245 66442.4
2.06445 134286
2.06645 450248
2.06845 270592
2.07045 0.0238965
2.07245 622106
2.07445 317045
2.07645 19338.9
2.07845 234729
2.08045 353998
2.08245 177993
2.08445 0.00409635
2.08645 641817
2.08845 5.75145e+09
2.09045 78296.3
2.09245 169806
2.09445 379707
2.09645 140032
2.09845 0.00517714
2.10046 212674
2.10246 493835
2.10446 426708
2.10646 0.00376231
2.10846 433566
2.11046 513413
2.11246 90577
2.11446 134653
2.11646 348812
2.11846 206441
2.12046 50973.8
2.12246 180689
2.12446 246868
2.12646 409192
2.12846 0.016676
2.13046 254180
2.13246 619936
2.13446 56844.6
2.13646 0.002547
2.13846 72294.4
2.14046 386288
2.14246 97945.9
2.14446 0.0163175
2.14647 220019
2.14847 265790
2.15047 6402.38
2.15247 38371.4
2.15447 209063
2.15647 873318
2.15847 112404
2.16047 57797.4
2.16247 339063
2.16447 159678
2.16647 61303.4
2.16847 0.0138468
2.17047 649391
2.17247 487364
2.17447 260395
2.17647 0.0306258
2.17847 234319
2.18047 226463
2.18247 49026.4
2.18447 0.0106939
2.18647 274648
2.18847 303535
2.19047 4762.98
2.19248 0.0231637
2.19448 173522
2.19648 152340
2.19848 28447.7
2.20048 124406
2.20248 678928
2.20448 203917
2.20648 142013
2.20848 9410.52
2.21048 0.0100588
2.21248 361945
2.21448 265492
2.21648 31955.1
2.21848 0.0168285
2.22048 300557
2.22248 343965
2.22448 15043.4
2.22648 185973
2.22848 166664
2.23048 422179
2.23248 471519
2.23448 204800
2.23648 0.0146887
2.23849 516512
2.24049 197216
2.24249 146931
2.24449 4014.36
2.24649 24709
2.24849 89948.7
2.25049 283405
2.25249 44212.8
2.25449 24390.3
2.25649 78170.9
2.25849 177390
2.26049 75640.3
2.26249 62585.9
2.26449 0.0144369
2.26649 54068.8
2.26849 104027
2.27049 2.03986e+06
2.27249 855066
2.27449 658479
2.27649 6.65648e+07
2.27849 1.6881e+06
2.28049 1.12647e+06
2.28249 790044
2.2845 815331
2.2865 928660
2.2885 1.25326e+06
2.2905 620525
2.2925 379061
2.2945 1.17779e+08
2.2965 991429
2.2985 624289
2.3005 747650
2.3025 540302
2.3045 489408
2.3065 395369
2.3085 544245
2.3105 457120
2.3125 639006
2.3145 779915
2.3165 806941
2.3185 439438
2.3205 230287
2.3225 530052
2.3245 522610
2.3265 550573
2.3285 690944
2.33051 732220
2.33251 537467
2.33451 478305
2.33651 598272
2.33851 418260
2.34051 839033
2.34251 457702
2.34451 418771
2.34651 915523
2.34851 849642
2.35051 676779
2.35251 455077
2.35451 561951
2.35651 415463
2.35851 1.40976e+06
2.36051 1.08322e+06
2.36251 396794
2.36451 288868
2.36651 320925
2.36851 571782
2.37051 285131
2.37251 578661
2.37451 485218
2.37652 286950
2.37852 2.09531e+08
2.38052 2.30615e+08
2.38252 336947
2.38452 301128
2.38652 290822
2.38852 538730
2.39052 925991
2.39252 731844
2.39452 624896
2.39652 348387
2.39852 276564
2.40052 1.19665e+10
2.40252 443060
2.40452 218991
2.40652 559601
2.40852 331795
2.41052 700237
2.41252 700629
2.41452 629788
2.41652 2.37093e+10
2.41852 419389
2.42052 682743
2.42253 392871
2.42453 329747
2.42653 566866
2.42853 865872
2.43053 426326
2.43253 504062
2.43453 529288
2.43653 1.15926e+06
2.43853 517174
2.44053 326818
2.44253 589648
2.44453 397891
2.44653 149571
2.44853 269724
2.45053 599432
2.45253 620244
2.45453 342345
2.45653 446565
2.45853 901801
2.46053 383401
2.46253 502239
2.46453 768460
2.46653 924203
2.46853 1.40781e+06
2.47054 634761
2.47254 702269
2.47454 346619
2.47654 586609
2.47854 805152
2.48054 487085
2.48254 119958
2.48454 532515
2.48654 408770
2.48854 86901.3
2.49054 227702
2.49254 732395
2.49454 680955
2.49654 490694
2.49854 594072
2.50054 787654
2.50254 200888
2.50454 178009
2.50654 126984
2.50854 608760
2.51054 191251
2.51254 546535
2.51454 579267
2.51655 111157
2.51855 679694
2.52055 1.10704e+06
2.52255 258388
2.52455 828832
2.52655 525430
2.52855 303242
2.53055 628095
2.53255 380014
2.53455 828206
2.53655 467564
2.53855 572646
2.54055 402979
2.54255 956214
2.54455 1.09211e+06
2.54655 417919
2.54855 570068
2.55055 456077
2.55255 969371
2.55455 429162
2.55655 809561
2.55855 145107
2.56055 892822
2.56256 536122
2.56456 559800
2.56656 839133
2.56856 292790
2.57056 429852
2.57256 815575
2.57456 434799
2.57656 406582
2.57856 587977
2.58056 488317
2.58256 514009
2.58456 653618
2.58656 924854
2.58856 676977
2.59056 697729
2.59256 314893
2.59456 466495
2.59656 1.06664e+06
2.59856 362335
2.60056 831432
2.60256 556130
2.60456 625331
2.60656 951490
2.60857 507737
2.61057 381546
2.61257 440619
2.61457 316753
2.61657 298178
2.61857 329741
2.62057 297926
2.62257 408166
2.62457 1.04382e+06
2.62657 583127
2.62857 427718
2.63057 653398
2.63257 522370
2.63457 3.80386e+07
2.63657 581455
2.63857 199611
2.64057 513916
2.64257 470979
2.64457 484420
2.64657 205918
2.64857 227489
2.65057 200522
2.65257 808497
2.65458 517387
2.65658 3.40432e+08
2.65858 427990
2.66058 297708
2.66258 538738
2.66458 556094
2.66658 374658
2.66858 535477
2.67058 166910
2.67258 299721
2.67458 688946
2.67658 561034
2.67858 571268
2.68058 591324
2.68258 338027
2.68458 1.17105e+06
2.68658 482767
2.68858 312591
2.69058 73413.2
2.69258 402962
2.69458 145562
2.69658 2.16775e+08
2.69858 342854
2.70059 113555
2.70259 143753
2.70459 673769
2.70659 93137.6
2.70859 673772
2.71059 946857
2.71259 783236
2.71459 258548
2.71659 552818
2.71859 435487
2.72059 760683
2.72259 828080
2.72459 223009
2.72659 356933
2.72859 621888
2.73059 62883.3
2.73259 649497
2.73459 192883
2.73659 327238
2.73859 403498
2.74059 578263
2.74259 320812
2.74459 313639
2.7466 460810
2.7486 592620
2.7506 791594
2.7526 1.7924e+06
2.7546 436871
2.7566 294563
2.7586 709220
2.7606 936094
2.7626 534516
2.7646 793967
2.7666 678820
2.7686 507123
2.7706 402728
2.7726 499946
2.7746 326690
2.7766 338305
2.7786 496921
2.7806 421892
2.7826 421634
2.7846 665774
2.7866 292701
2.7886 654527
2.7906 536508
2.79261 448842
2.79461 335557
2.79661 586567
2.79861 649404
2.80061 471943
2.80261 353792
2.80461 320269
2.80661 361854
2.80861 701267
2.81061 279033
2.81261 1.44412e+06
2.81461 916210
2.81661 293752
2.81861 572453
2.82061 590271
2.82261 71158.7
2.82461 246530
2.82661 446929
2.82861 369866
2.83061 142343
2.83261 546081
2.83461 627146
2.83661 147736
2.83862 597145
2.84062 576462
2.84262 633561
2.84462 412875
2.84662 640892
2.84862 735897
2.85062 573267
2.85262 115938
2.85462 463168
2.85662 201913
2.85712 0.0