File: SRC_files/py_figures/XRD_data/n1000_p30.txt
0.0 0.0
0.00200043 2.24408e-16
0.00400087 7.14654e-17
0.0060013 1.01739e-16
0.00800173 1.30562e-17
0.0100022 5.94147e-18
0.0120026 0.0
0.014003 0.0
0.0160035 0.0
0.0180039 0.0
0.0200043 0.0
0.0220048 0.0
0.0240052 9.15578e-18
0.0260056 2.68631e-18
0.0280061 1.67036e-18
0.0300065 2.33937e-18
0.0320069 1.55478e-18
0.0340074 2.25254e-18
0.0360078 0.0
0.0380082 0.0
0.0400087 0.0
0.0420091 0.0
0.0440095 0.0
0.04601 0.0
0.0480104 1.9709e-18
0.0500108 1.93737e-18
0.0520113 1.14075e-18
0.0540117 5.75448e-19
0.0560121 3.45233e-18
0.0580126 0.0
0.060013 0.0
0.0620134 0.0
0.0640139 0.0
0.0660143 0.0
0.0680147 0.0
0.0700152 2.0821e-18
0.0720156 9.13101e-20
0.074016 8.56617e-19
0.0760165 8.76053e-19
0.0780169 5.65085e-19
0.0800173 3.37883e-18
0.0820178 0.0
0.0840182 0.0
0.0860186 0.0
0.0880191 0.0
0.0900195 0.0
0.0920199 0.0
0.0940204 1.20131e-19
0.0960208 5.91011e-19
0.0980212 9.05666e-20
0.100022 3.11665e-20
0.102022 3.91283e-19
0.104023 0.0
0.106023 0.0
0.108023 0.0
0.110024 0.0
0.112024 0.0
0.114025 0.0
0.116025 5.21419e-19
0.118026 2.34433e-18
0.120026 9.38452e-19
0.122026 1.0005e-18
0.124027 1.13443e-19
0.126027 5.09412e-19
0.128028 0.0
0.130028 0.0
0.132029 0.0
0.134029 0.0
0.136029 0.0
0.13803 0.0
0.14003 3.59396e-19
0.142031 3.42427e-18
0.144031 1.07072e-18
0.146032 6.07253e-19
0.148032 1.54714e-19
0.150033 0.0
0.152033 0.0
0.154033 0.0
0.156034 0.0
0.158034 0.0
0.160035 0.0
0.162035 1.32302e-18
0.164036 9.75101e-19
0.166036 1.7991e-20
0.168036 1.46293e-18
0.170037 3.02165e-18
0.172037 2.38009e-19
0.174038 0.0
0.176038 0.0
0.178039 0.0
0.180039 0.0
0.182039 0.0
0.18404 0.0
0.18604 2.09548e-16
0.188041 7.3557e-17
0.190041 3.58504e-18
0.192042 3.61336e-19
0.194042 3.15167e-18
0.196042 0.0
0.198043 0.0
0.200043 0.0
0.202044 0.0
0.204044 0.0
0.206045 0.0
0.208045 5.15875e-19
0.210046 3.06397e-19
0.212046 2.8579e-19
0.214046 3.84465e-19
0.216047 4.50149e-19
0.218047 3.43253e-19
0.220048 0.0
0.222048 0.0
0.224049 0.0
0.226049 0.0
0.228049 0.0
0.23005 0.0
0.23205 4.69343e-19
0.234051 2.09104e-18
0.236051 6.05199e-19
0.238052 1.46481e-18
0.240052 1.8779e-19
0.242052 0.0
0.244053 0.0
0.246053 0.0
0.248054 0.0
0.250054 0.0
0.252055 0.0
0.254055 3.09701e-19
0.256055 8.34603e-19
0.258056 8.8497e-20
0.260056 1.47022e-18
0.262057 1.61437e-19
0.264057 1.11158e-18
0.266058 0.0
0.268058 0.0
0.270059 0.0
0.272059 0.0
0.274059 0.0
0.27606 0.0
0.27806 2.05712e-19
0.280061 2.39391e-19
0.282061 3.08084e-19
0.284062 1.25956e-18
0.286062 8.86589e-19
0.288062 1.99002e-18
0.290063 0.0
0.292063 0.0
0.294064 0.0
0.296064 0.0
0.298065 0.0
0.300065 0.0
0.302065 9.0075e-19
0.304066 9.1031e-19
0.306066 1.01063e-19
0.308067 9.42013e-18
0.310067 4.74809e-19
0.312068 0.0
0.314068 0.0
0.316068 0.0
0.318069 0.0
0.320069 0.0
0.32207 0.0
0.32407 1.2848e-19
0.326071 1.49963e-19
0.328071 9.72251e-20
0.330072 2.13359e-19
0.332072 8.45016e-19
0.334072 1.33684e-19
0.336073 0.0
0.338073 0.0
0.340074 0.0
0.342074 0.0
0.344075 0.0
0.346075 0.0
0.348075 1.96411e-19
0.350076 3.51081e-19
0.352076 3.82698e-19
0.354077 7.73152e-20
0.356077 2.24739e-19
0.358078 0.0
0.360078 0.0
0.362078 0.0
0.364079 0.0
0.366079 0.0
0.36808 0.0
0.37008 9.78578e-18
0.372081 2.34055e-18
0.374081 1.39459e-17
0.376082 3.10619e-18
0.378082 1.00799e-18
0.380082 3.24704e-18
0.382083 0.0
0.384083 0.0
0.386084 0.0
0.388084 0.0
0.390085 0.0
0.392085 0.0
0.394085 6.47978e-21
0.396086 7.95888e-19
0.398086 1.39508e-18
0.400087 6.31182e-19
0.402087 2.99656e-19
0.404088 0.0
0.406088 0.0
0.408088 0.0
0.410089 0.0
0.412089 0.0
0.41409 0.0
0.41609 2.80275e-19
0.418091 6.53767e-20
0.420091 1.69102e-19
0.422091 2.58816e-19
0.424092 5.13737e-19
0.426092 2.77958e-18
0.428093 0.0
0.430093 0.0
0.432094 0.0
0.434094 0.0
0.436095 0.0
0.438095 0.0
0.440095 2.83695e-19
0.442096 2.79793e-20
0.444096 2.99001e-19
0.446097 3.25651e-19
0.448097 1.42146e-19
0.450098 0.0
0.452098 0.0
0.454098 0.0
0.456099 0.0
0.458099 0.0
0.4601 0.0
0.4621 2.1619e-19
0.464101 2.80654e-19
0.466101 7.78064e-19
0.468101 1.09457e-19
0.470102 1.62893e-20
0.472102 3.90574e-19
0.474103 0.0
0.476103 0.0
0.478104 0.0
0.480104 0.0
0.482104 0.0
0.484105 0.0
0.486105 2.31012e-19
0.488106 4.28206e-19
0.490106 3.36162e-19
0.492107 2.19767e-18
0.494107 8.2511e-18
0.496108 0.0
0.498108 0.0
0.500108 0.0
0.502109 0.0
0.504109 0.0
0.50611 0.0
0.50811 4.47481e-19
0.510111 1.7958e-19
0.512111 6.82303e-20
0.514111 3.40608e-20
0.516112 9.30368e-19
0.518112 7.0297e-20
0.520113 0.0
0.522113 0.0
0.524114 0.0
0.526114 0.0
0.528114 0.0
0.530115 0.0
0.532115 2.15167e-19
0.534116 4.79587e-19
0.536116 6.08083e-20
0.538117 2.20489e-21
0.540117 1.62127e-19
0.542117 5.77315e-20
0.544118 0.0
0.546118 0.0
0.548119 0.0
0.550119 0.0
0.55212 0.0
0.55412 0.0
0.556121 1.27619e-18
0.558121 8.21489e-19
0.560121 2.08547e-19
0.562122 4.4305e-18
0.564122 3.43111e-20
0.566123 0.0
0.568123 0.0
0.570124 9.11843e-21
0.572124 6.56271e-21
0.574124 7.33508e-21
0.576125 1.96454e-20
0.578125 1.14618e-19
0.580126 1.51287e-18
0.582126 2.47531e-19
0.584127 7.26353e-19
0.586127 1.98434e-19
0.588127 2.52654e-19
0.590128 2.08278e-20
0.592128 2.06815e-20
0.594129 1.03905e-20
0.596129 5.82023e-20
0.59813 2.5069e-20
0.60013 1.18758e-19
0.60213 6.64913e-19
0.604131 6.5224e-19
0.606131 1.43243e-19
0.608132 2.70722e-19
0.610132 9.54709e-19
0.612133 1.94181e-20
0.614133 1.58894e-19
0.616134 1.88305e-19
0.618134 3.04873e-19
0.620134 2.55143e-19
0.622135 8.10929e-20
0.624135 6.74601e-20
0.626136 2.67093e-19
0.628136 1.07898e-18
0.630137 8.96563e-19
0.632137 1.62986e-19
0.634137 5.63814e-19
0.636138 6.65947e-21
0.638138 3.73928e-19
0.640139 2.32201e-20
0.642139 1.72552e-19
0.64414 2.21247e-19
0.64614 3.17308e-20
0.64814 5.20288e-19
0.650141 3.24167e-19
0.652141 7.70722e-19
0.654142 1.60117e-18
0.656142 1.37476e-18
0.658143 1.68061e-20
0.660143 1.87511e-19
0.662144 1.08816e-19
0.664144 7.61809e-20
0.666144 1.34559e-20
0.668145 5.83273e-20
0.670145 3.43905e-19
0.672146 7.90111e-18
0.674146 3.39579e-17
0.676147 5.77602e-19
0.678147 1.48529e-19
0.680147 1.949e-18
0.682148 2.06403e-19
0.684148 9.56568e-20
0.686149 1.99212e-20
0.688149 0.0
0.69015 7.29246e-20
0.69215 7.23372e-20
0.69415 1.01537e-19
0.696151 2.61446e-19
0.698151 4.87036e-19
0.700152 2.10763e-18
0.702152 1.47453e-18
0.704153 6.41161e-20
0.706153 7.57883e-20
0.708153 0.0
0.710154 2.42113e-20
0.712154 1.54753e-19
0.714155 2.19211e-19
0.716155 5.65316e-19
0.718156 3.90683e-19
0.720156 5.52832e-19
0.722157 3.15683e-19
0.724157 4.05243e-19
0.726157 7.24739e-19
0.728158 1.49861e-19
0.730158 6.74076e-20
0.732159 3.52567e-19
0.734159 2.82612e-19
0.73616 4.26418e-20
0.73816 9.73883e-20
0.74016 5.82511e-19
0.742161 1.70581e-18
0.744161 1.05956e-18
0.746162 4.63623e-18
0.748162 3.56719e-18
0.750163 6.93879e-20
0.752163 1.96523e-19
0.754163 7.5438e-20
0.756164 0.0
0.758164 0.0
0.760165 6.29075e-20
0.762165 5.82108e-19
0.764166 6.0183e-19
0.766166 2.01006e-18
0.768166 1.03461e-18
0.770167 8.72474e-19
0.772167 2.81888e-19
0.774168 6.99667e-19
0.776168 1.69083e-19
0.778169 2.25973e-19
0.780169 9.29658e-20
0.78217 0.0
0.78417 1.36282e-19
0.78617 1.89555e-18
0.788171 1.51626e-17
0.790171 1.08027e-18
0.792172 1.12024e-18
0.794172 4.34161e-19
0.796173 1.85814e-18
0.798173 0.0
0.800173 3.2384e-18
0.802174 3.84372e-20
0.804174 1.44069e-19
0.806175 0.0
0.808175 4.75082e-20
0.810176 1.87184e-19
0.812176 1.22065e-18
0.814176 8.52604e-19
0.816177 1.05418e-18
0.818177 1.88634e-18
0.820178 1.59455e-19
0.822178 2.53432e-19
0.824179 0.0
0.826179 1.4876e-19
0.828179 4.88756e-20
0.83018 0.0
0.83218 2.3867e-19
0.834181 1.296e-18
0.836181 1.32135e-18
0.838182 2.45519e-19
0.840182 6.65736e-21
0.842183 2.48337e-18
0.844183 2.31519e-19
0.846183 3.07124e-19
0.848184 1.74276e-19
0.850184 0.0
0.852185 3.91686e-20
0.854185 0.0
0.856186 2.94704e-19
0.858186 1.19707e-17
0.860186 1.31192e-17
0.862187 1.22465e-18
0.864187 1.14124e-18
0.866188 1.52325e-19
0.868188 0.0
0.870189 6.33257e-20
0.872189 0.0
0.874189 4.04481e-20
0.87619 0.0
0.87819 5.62419e-19
0.880191 6.34747e-19
0.882191 4.57497e-19
0.884192 5.98824e-18
0.886192 8.2123e-19
0.888192 1.64849e-19
0.890193 6.22571e-20
0.892193 0.0
0.894194 1.6021e-19
0.896194 0.0
0.898195 6.3436e-20
0.900195 0.0
0.902196 5.43563e-19
0.904196 1.16943e-18
0.906196 6.88001e-19
0.908197 1.11217e-18
0.910197 2.49079e-19
0.912198 1.71739e-19
0.914198 0.0
0.916199 3.2756e-19
0.918199 0.0
0.920199 2.60903e-19
0.9222 0.0
0.9242 2.00112e-18
0.926201 5.60121e-19
0.928201 8.55126e-19
0.930202 3.36012e-18
0.932202 1.70602e-18
0.934202 1.61989e-18
0.936203 0.0
0.938203 2.45475e-19
0.940204 6.33311e-20
0.942204 0.0
0.944205 3.43064e-20
0.946205 0.0
0.948205 1.16408e-19
0.950206 1.15e-18
0.952206 2.78461e-19
0.954207 5.53763e-19
0.956207 3.58406e-18
0.958208 0.0
0.960208 1.22749e-18
0.962209 0.0
0.964209 1.11054e-19
0.966209 1.69362e-19
0.96821 0.0
0.97021 4.02292e-19
0.972211 9.29304e-19
0.974211 4.19961e-18
0.976212 9.97107e-19
0.978212 1.36824e-19
0.980212 5.43877e-19
0.982213 7.6579e-19
0.984213 1.29587e-18
0.986214 5.41222e-20
0.988214 2.19961e-19
0.990215 3.40889e-19
0.992215 7.78332e-19
0.994215 1.2328e-18
0.996216 2.04673e-18
0.998216 4.55226e-19
1.00022 1.21382e-18
1.00222 1.5005e-19
1.00422 5.11913e-19
1.00622 7.52773e-19
1.00822 1.51291e-19
1.01022 1.44634e-19
1.01222 8.64515e-19
1.01422 9.44364e-19
1.01622 1.25698e-18
1.01822 2.12592e-19
1.02022 2.28843e-18
1.02222 1.2513e-18
1.02422 1.05912e-18
1.02622 9.84433e-18
1.02822 3.13898e-20
1.03022 1.40402e-19
1.03222 2.17163e-19
1.03422 1.17624e-19
1.03622 1.88449e-19
1.03823 4.67331e-19
1.04023 1.52578e-18
1.04223 3.64651e-17
1.04423 1.38351e-16
1.04623 2.55997e-17
1.04823 2.67284e-17
1.05023 6.62673e-18
1.05223 7.02623e-19
1.05423 7.15855e-19
1.05623 7.63191e-19
1.05823 1.07352e-18
1.06023 1.17801e-19
1.06223 8.55756e-19
1.06423 2.69522e-18
1.06623 3.90354e-19
1.06823 1.2729e-18
1.07023 1.98956e-17
1.07223 6.22376e-19
1.07423 1.03747e-18
1.07623 3.78561e-19
1.07823 3.12427e-19
1.08023 9.82466e-20
1.08223 6.7051e-19
1.08423 2.00571e-19
1.08624 1.66122e-18
1.08824 2.24059e-18
1.09024 6.25926e-19
1.09224 5.46483e-18
1.09424 4.73352e-18
1.09624 9.72561e-19
1.09824 8.14978e-20
1.10024 6.59574e-20
1.10224 3.936e-18
1.10424 1.29572e-19
1.10624 5.97098e-20
1.10824 1.36968e-18
1.11024 1.05277e-18
1.11224 2.72858e-18
1.11424 1.77299e-19
1.11624 3.55866e-19
1.11824 1.86003e-18
1.12024 1.46408e-19
1.12224 9.78961e-20
1.12424 1.86936e-19
1.12624 1.2693e-18
1.12824 8.24539e-19
1.13024 4.86045e-19
1.13225 5.77409e-20
1.13425 1.09823e-18
1.13625 6.34434e+07
1.13825 1.0137e+09
1.14025 4.17223e+07
1.14225 5.38559e+07
1.14425 4.70388e+07
1.14625 3.78825e+07
1.14825 3.3847e+07
1.15025 3.7728e+07
1.15225 2.01515e+07
1.15425 3.01933e+07
1.15625 3.56674e+07
1.15825 2.64791e+07
1.16025 3.65211e+07
1.16225 5.8659e+07
1.16425 2.47877e+07
1.16625 1.07954e+07
1.16825 2.34572e+07
1.17025 1.99205e+07
1.17225 9.27036e+06
1.17425 2.34046e+07
1.17625 3.12475e+07
1.17826 1.67611e+07
1.18026 1.55604e+07
1.18226 2.1295e+07
1.18426 1.81117e+07
1.18626 1.5357e+07
1.18826 7.25765e+06
1.19026 7.42961e+06
1.19226 6.64798e+06
1.19426 1.08313e+07
1.19626 5.4238e+06
1.19826 5.67167e+06
1.20026 1.18942e+07
1.20226 1.64397e+07
1.20426 2.76768e+07
1.20626 1.08991e+07
1.20826 1.24585e+07
1.21026 1.0804e+07
1.21226 1.42154e+06
1.21426 1.09747e+07
1.21626 1.16142e+07
1.21826 3.85985e+06
1.22026 7.05281e+06
1.22226 1.27502e+07
1.22427 1.97305e+07
1.22627 1.16739e+07
1.22827 5.68079e+06
1.23027 3.29193e+06
1.23227 2.30748e+07
1.23427 8.19024e+06
1.23627 1.89162e+07
1.23827 6.26496e+06
1.24027 6.50383e+06
1.24227 1.03882e+07
1.24427 1.41992e+06
1.24627 1.52682e+07
1.24827 3.70832e+06
1.25027 6.96173e+06
1.25227 7.00062e+06
1.25427 8.73895e+06
1.25627 2.82222e+06
1.25827 7.32029e+06
1.26027 6.81635e+06
1.26227 7.4084e+06
1.26427 1.32241e+07
1.26627 4.42544e+06
1.26827 3.76432e+06
1.27028 1.6447e+06
1.27228 6.68198e+06
1.27428 7.44585e+06
1.27628 5.3608e+06
1.27828 6.10376e+06
1.28028 9.38709e+06
1.28228 7.74943e+06
1.28428 7.38438e+06
1.28628 8.26888e+06
1.28828 5.23034e+06
1.29028 1.15622e+07
1.29228 3.26171e+06
1.29428 2.37472e+06
1.29628 4.47726e+06
1.29828 2.70128e+06
1.30028 4.65109e+06
1.30228 4.21464e+06
1.30428 4.86893e+06
1.30628 7.96279e+06
1.30828 7.67666e+06
1.31028 4.18428e+06
1.31228 4.19649e+06
1.31428 8.02088e+06
1.31629 1.52972e+06
1.31829 7.77438e+06
1.32029 3.10638e+06
1.32229 9.18004e+06
1.32429 6.06938e+06
1.32629 1.749e+06
1.32829 1.03218e+09
1.33029 7.15476e+06
1.33229 2.87131e+06
1.33429 1.7116e+06
1.33629 3.01367e+06
1.33829 3.0136e+06
1.34029 5.23021e+06
1.34229 6.07979e+06
1.34429 759411
1.34629 7.28357e+06
1.34829 3.72572e+06
1.35029 5.25901e+06
1.35229 8.54365e+06
1.35429 1.97353e+06
1.35629 5.15576e+06
1.35829 3.02406e+06
1.36029 2.13731e+06
1.3623 7.31502e+06
1.3643 7.32681e+06
1.3663 1.08327e+07
1.3683 996982
1.3703 2.15942e+06
1.3723 5.38281e+06
1.3743 3.45275e+06
1.3763 3.44374e+06
1.3783 1.58206e+06
1.3803 1.02732e+06
1.3823 1.47279e+06
1.3843 5.43415e+06
1.3863 3.6178e+06
1.3883 7.88208e+06
1.3903 2.23243e+06
1.3923 1.19059e+06
1.3943 1.0519e+07
1.3963 6.76253e+06
1.3983 4.26042e+06
1.4003 1.04958e+06
1.4023 2.25112e+06
1.4043 8.86168e+06
1.4063 3.33803e+06
1.40831 5.70789e+06
1.41031 2.71806e+06
1.41231 5.35114e+06
1.41431 3.98658e+06
1.41631 46504.8
1.41831 3.02626e+06
1.42031 1.46107e+06
1.42231 2.54654e+06
1.42431 2.33148e+06
1.42631 1.23473e+06
1.42831 3.35033e+06
1.43031 3.03587e+06
1.43231 2.32815e+06
1.43431 1.05208e+07
1.43631 4.22867e+06
1.43831 1.38887e+06
1.44031 2.66739e+06
1.44231 3.36182e+06
1.44431 4.43349e+06
1.44631 4.14613e+06
1.44831 1.10903e+07
1.45031 9.69938e+06
1.45231 7.35295e+06
1.45432 3.80544e+06
1.45632 7.52584e+06
1.45832 2.18747e+06
1.46032 694330
1.46232 209019
1.46432 5.20092e+06
1.46632 1.71684e+06
1.46832 230200
1.47032 1.66489e+06
1.47232 411818
1.47432 356870
1.47632 1.58683e+06
1.47832 2.14675e+06
1.48032 69208.9
1.48232 66839.2
1.48432 1.73311e+06
1.48632 1.21449e+06
1.48832 8.05016e+06
1.49032 586061
1.49232 3.7647e+06
1.49432 1.3295e+06
1.49632 1.1571e+06
1.49832 583565
1.50033 3.19348e+06
1.50233 1.85737e+06
1.50433 342481
1.50633 1.52499e+06
1.50833 2.90768e+06
1.51033 1.43729e+06
1.51233 1.63417e+06
1.51433 2.78375e+06
1.51633 2.77137e+06
1.51833 1.86926e+06
1.52033 2.60544e+06
1.52233 1.83394e+06
1.52433 6.58964e+06
1.52633 5.3418e+06
1.52833 1.27942e+06
1.53033 4.18824e+06
1.53233 2.5883e+06
1.53433 1.34147e+06
1.53633 714173
1.53833 1.47274e+06
1.54033 2.43452e+06
1.54233 4.13398e+06
1.54433 4.78671e+06
1.54634 665122
1.54834 2.59025e+06
1.55034 2.3577e+06
1.55234 1.8481e+06
1.55434 3.47809e+06
1.55634 2.45357e+06
1.55834 97810
1.56034 5.13559e+06
1.56234 538717
1.56434 4.69319e+06
1.56634 1.64212e+06
1.56834 2.15128e+06
1.57034 1.47407e+06
1.57234 2.72722e+06
1.57434 1.24189e+06
1.57634 553652
1.57834 1.12151e+06
1.58034 2.37475e+06
1.58234 4.72992e+06
1.58434 3.55097e+06
1.58634 449170
1.58834 3.80402e+06
1.59034 7.80338e+06
1.59235 1.02444e+06
1.59435 1.82062e+06
1.59635 2.31168e+06
1.59835 887658
1.60035 6.57142e+06
1.60235 1.37112e+06
1.60435 2.54758e+06
1.60635 50482.1
1.60835 269931
1.61035 3.44686e+06
1.61235 622778
1.61435 2.88753e+06
1.61635 2.79275e+06
1.61835 2.51417e+06
1.62035 1.49262e+06
1.62235 569661
1.62435 3.25157e+06
1.62635 518178
1.62835 517349
1.63035 3.79183e+06
1.63235 1.58002e+06
1.63435 1.80966e+06
1.63635 1.05138e+06
1.63836 570262
1.64036 3.00451e+06
1.64236 4.93225e+06
1.64436 280072
1.64636 3.13841e+06
1.64836 2.49105e+06
1.65036 136315
1.65236 3.95489e+06
1.65436 1.48897e+06
1.65636 2.9236e+06
1.65836 555894
1.66036 564859
1.66236 2.96606e+06
1.66436 1.1888e+06
1.66636 422521
1.66836 4.15587e+06
1.67036 1.52061e+06
1.67236 2.89839e+06
1.67436 1.10835e+06
1.67636 371027
1.67836 1.4844e+06
1.68036 628148
1.68236 1.23087e+06
1.68437 2.62019e+06
1.68637 22872.9
1.68837 899090
1.69037 1.32042e+06
1.69237 1.56389e+06
1.69437 6.14296e+06
1.69637 1.69666e+06
1.69837 1.58637e+06
1.70037 211547
1.70237 4.0367e+06
1.70437 4829.2
1.70637 2.00893e+06
1.70837 792148
1.71037 1.01429e+06
1.71237 1.07847e+06
1.71437 570305
1.71637 4.1946e+06
1.71837 790539
1.72037 1.90869e+06
1.72237 728339
1.72437 3.7073e+06
1.72637 345617
1.72837 3.45125e+06
1.73038 1.69384e+06
1.73238 220398
1.73438 946804
1.73638 338882
1.73838 3.52817e+06
1.74038 8312.88
1.74238 3.7005e+06
1.74438 216658
1.74638 872699
1.74838 1.36593e+06
1.75038 638889
1.75238 1.67474e+06
1.75438 2.64196e+06
1.75638 1.90121e+06
1.75838 3.5559e+06
1.76038 3.29513e+06
1.76238 757766
1.76438 225745
1.76638 767423
1.76838 1.24046e+06
1.77038 1.83113e+06
1.77238 2.24342e+06
1.77438 1.98885e+06
1.77638 1.04615e+06
1.77839 1.60416e+06
1.78039 500532
1.78239 1.26566e+06
1.78439 974068
1.78639 906188
1.78839 340848
1.79039 1.18192e+06
1.79239 210341
1.79439 377031
1.79639 692236
1.79839 2.03774e+06
1.80039 525713
1.80239 72346.2
1.80439 760424
1.80639 1.29946e+06
1.80839 1.40388e+06
1.81039 668738
1.81239 663925
1.81439 504596
1.81639 2.06274e+06
1.81839 1.00484e+06
1.82039 766078
1.82239 380973
1.8244 1.94692e+06
1.8264 367827
1.8284 305763
1.8304 602549
1.8324 850059
1.8344 947438
1.8364 1.79193e+06
1.8384 497168
1.8404 2.76436e+06
1.8424 470323
1.8444 895370
1.8464 19988.1
1.8484 427829
1.8504 1.07641e+06
1.8524 9754.28
1.8544 1.81638e+06
1.8564 943464
1.8584 38141.9
1.8604 240483
1.8624 848527
1.8644 2.44909e+06
1.8664 572563
1.8684 1.14838e+06
1.87041 208057
1.87241 674992
1.87441 547484
1.87641 335859
1.87841 1.27286e+06
1.88041 567738
1.88241 809748
1.88441 1.62661e+06
1.88641 774937
1.88841 71977.7
1.89041 866336
1.89241 960436
1.89441 1.17658e+06
1.89641 856476
1.89841 484439
1.90041 1.47121e+06
1.90241 1.12473e+06
1.90441 628997
1.90641 223911
1.90841 216431
1.91041 831807
1.91241 430203
1.91441 41310.2
1.91642 601792
1.91842 549376
1.92042 582937
1.92242 596325
1.92442 1.10377e+06
1.92642 1.09293e+06
1.92842 1.06124e+06
1.93042 181560
1.93242 1.61837e+06
1.93442 2.08669e-19
1.93642 1.42624e+06
1.93842 544642
1.94042 196730
1.94242 1.50227e+06
1.94442 597786
1.94642 164735
1.94842 430030
1.95042 1.18957e+06
1.95242 528230
1.95442 1.91984e+06
1.95642 196253
1.95842 192344
1.96042 2.15648e+06
1.96243 3.8831e-19
1.96443 5480.37
1.96643 150303
1.96843 2.84777e-18
1.97043 2.59102e+06
1.97243 790647
1.97443 0.0254968
1.97643 829792
1.97843 1.20658e+06
1.98043 1.31365e+06
1.98243 1.28207e+06
1.98443 480191
1.98643 843113
1.98843 763688
1.99043 1.36176e+06
1.99243 4.95047e+08
1.99443 2.31249e+06
1.99643 880608
1.99843 0.00978146
2.00043 917438
2.00243 850608
2.00443 0.015858
2.00643 510886
2.00844 2.18625e+06
2.01044 0.0606198
2.01244 30618.1
2.01444 105801
2.01644 274311
2.01844 965787
2.02044 752240
2.02244 292245
2.02444 65554.4
2.02644 982348
2.02844 529193
2.03044 413140
2.03244 625134
2.03444 446067
2.03644 0.0265558
2.03844 978502
2.04044 1.62175e+06
2.04244 221535
2.04444 150743
2.04644 573118
2.04844 560830
2.05044 392737
2.05244 2.41543e+06
2.05445 1.26947e+06
2.05645 0.0226307
2.05845 569170
2.06045 458769
2.06245 49925
2.06445 199740
2.06645 754072
2.06845 227589
2.07045 0.0152045
2.07245 846153
2.07445 1.87058e+06
2.07645 9205.52
2.07845 8926.96
2.08045 570706
2.08245 969305
2.08445 0.0504741
2.08645 222782
2.08845 5.75193e+09
2.09045 282771
2.09245 441320
2.09445 384154
2.09645 692374
2.09845 0.02263
2.10046 965731
2.10246 1.321e+06
2.10446 164417
2.10646 0.0217272
2.10846 757801
2.11046 1.01682e+06
2.11246 133636
2.11446 118881
2.11646 351563
2.11846 451049
2.12046 405927
2.12246 402457
2.12446 970470
2.12646 29043.8
2.12846 0.0338759
2.13046 1.65231e+06
2.13246 1.49969e+06
2.13446 29029.3
2.13646 0.0308551
2.13846 613722
2.14046 871011
2.14246 308346
2.14446 0.0101427
2.14647 289016
2.14847 1.32232e+06
2.15047 20277.9
2.15247 46435.7
2.15447 157962
2.15647 726350
2.15847 51098.4
2.16047 1.91063e+06
2.16247 612835
2.16447 531282
2.16647 532294
2.16847 0.0083561
2.17047 349602
2.17247 762235
2.17447 43795.5
2.17647 0.0148828
2.17847 422448
2.18047 665121
2.18247 198579
2.18447 0.0136907
2.18647 890721
2.18847 626814
2.19047 5100.4
2.19248 0.0670045
2.19448 291108
2.19648 501392
2.19848 115247
2.20048 156115
2.20248 678995
2.20448 49936.7
2.20648 871683
2.20848 17705.5
2.21048 0.0194305
2.21248 336249
2.21448 787768
2.21648 225801
2.21848 0.0353764
2.22048 373771
2.22248 997403
2.22448 425983
2.22648 23112
2.22848 631473
2.23048 708101
2.23248 959486
2.23448 185024
2.23648 0.01236
2.23849 907387
2.24049 425263
2.24249 213386
2.24449 172601
2.24649 686253
2.24849 689425
2.25049 299975
2.25249 894794
2.25449 90493.2
2.25649 289627
2.25849 581716
2.26049 220888
2.26249 138209
2.26449 0.0260201
2.26649 123486
2.26849 446632
2.27049 4.3538e+06
2.27249 2.48357e+06
2.27449 1.97794e+06
2.27649 3.8979e+07
2.27849 4.38714e+06
2.28049 2.31418e+06
2.28249 2.51264e+06
2.2845 2.82724e+06
2.2865 1.61186e+06
2.2885 2.56176e+06
2.2905 1.38289e+06
2.2925 613883
2.2945 6.17715e+07
2.2965 930904
2.2985 1.94905e+06
2.3005 1.21031e+06
2.3025 1.16003e+06
2.3045 1.31825e+06
2.3065 2.55845e+06
2.3085 1.59975e+06
2.3105 980154
2.3125 923457
2.3145 696193
2.3165 1.29869e+06
2.3185 1.71464e+06
2.3205 644561
2.3225 816396
2.3245 2.52562e+06
2.3265 1.00159e+06
2.3285 1.33071e+06
2.33051 913757
2.33251 1.21251e+06
2.33451 1.38415e+06
2.33651 1.02675e+06
2.33851 1.47584e+06
2.34051 1.58964e+06
2.34251 1.21122e+06
2.34451 984654
2.34651 1.21128e+06
2.34851 1.22458e+06
2.35051 1.21631e+06
2.35251 878456
2.35451 1.10008e+06
2.35651 1.68429e+06
2.35851 1.00208e+06
2.36051 775962
2.36251 1.00728e+06
2.36451 1.46396e+06
2.36651 944957
2.36851 984219
2.37051 687737
2.37251 583906
2.37451 1.01447e+06
2.37652 849329
2.37852 1.03745e+08
2.38052 1.15177e+08
2.38252 419106
2.38452 999800
2.38652 1.35671e+06
2.38852 870051
2.39052 1.3803e+06
2.39252 1.23033e+06
2.39452 645997
2.39652 1.24482e+06
2.39852 1.52757e+06
2.40052 1.19669e+10
2.40252 1.54308e+06
2.40452 1.57028e+06
2.40652 563474
2.40852 239191
2.41052 1.16171e+06
2.41252 1.33291e+06
2.41452 1.93387e+06
2.41652 2.37098e+10
2.41852 421119
2.42052 1.57185e+06
2.42253 611299
2.42453 2.12425e+06
2.42653 1.36077e+06
2.42853 1.98593e+06
2.43053 1.17588e+06
2.43253 1.72268e+06
2.43453 796068
2.43653 1.32691e+06
2.43853 1.07283e+06
2.44053 975920
2.44253 1.79544e+06
2.44453 1.99799e+06
2.44653 620987
2.44853 1.19483e+06
2.45053 1.28578e+06
2.45253 1.04e+06
2.45453 1.50915e+06
2.45653 1.37869e+06
2.45853 1.78124e+06
2.46053 1.45871e+06
2.46253 1.25731e+06
2.46453 420495
2.46653 1.30267e+06
2.46853 1.2197e+06
2.47054 795718
2.47254 943669
2.47454 678843
2.47654 1.64753e+06
2.47854 1.02346e+06
2.48054 1.63598e+06
2.48254 2.04023e+06
2.48454 1.03595e+06
2.48654 835000
2.48854 1.20745e+06
2.49054 576873
2.49254 1.66971e+06
2.49454 531944
2.49654 1.28819e+06
2.49854 1.14322e+06
2.50054 787746
2.50254 907343
2.50454 2.13243e+06
2.50654 268037
2.50854 1.2278e+06
2.51054 511072
2.51254 1.09773e+06
2.51454 1.21017e+06
2.51655 2.16599e+06
2.51855 2.13534e+06
2.52055 742774
2.52255 1.53702e+06
2.52455 758393
2.52655 349765
2.52855 1.36183e+06
2.53055 592034
2.53255 1.24766e+06
2.53455 548121
2.53655 978726
2.53855 1.93737e+06
2.54055 1.45226e+06
2.54255 1.4897e+06
2.54455 830410
2.54655 2.19052e+06
2.54855 1.19317e+06
2.55055 1.13305e+06
2.55255 2.51477e+06
2.55455 895955
2.55655 1.12006e+06
2.55855 1.27134e+06
2.56055 763472
2.56256 1.72983e+06
2.56456 2.28211e+06
2.56656 1.63403e+06
2.56856 2.32399e+06
2.57056 456823
2.57256 2.25769e+06
2.57456 646399
2.57656 810540
2.57856 1.50497e+06
2.58056 1.2825e+06
2.58256 1.25203e+06
2.58456 1.4677e+06
2.58656 912166
2.58856 2.45167e+06
2.59056 1.8383e+06
2.59256 677026
2.59456 760021
2.59656 369436
2.59856 516223
2.60056 397922
2.60256 1.33731e+06
2.60456 1.51084e+06
2.60656 997514
2.60857 857646
2.61057 722135
2.61257 776357
2.61457 600803
2.61657 2.61299e+06
2.61857 598513
2.62057 356614
2.62257 1.16747e+06
2.62457 2.46852e+06
2.62657 790753
2.62857 1.48435e+06
2.63057 611492
2.63257 533099
2.63457 3.85312e+07
2.63657 1.32342e+06
2.63857 710649
2.64057 1.52217e+06
2.64257 1.73147e+06
2.64457 1.09435e+06
2.64657 1.1398e+06
2.64857 671433
2.65057 539408
2.65257 1.0573e+06
2.65458 1.0418e+06
2.65658 1.69115e+08
2.65858 2.27104e+06
2.66058 924845
2.66258 1.22277e+06
2.66458 1.60992e+06
2.66658 1.43702e+06
2.66858 1.25223e+06
2.67058 902871
2.67258 317726
2.67458 1.56678e+06
2.67658 1.23449e+06
2.67858 1.30691e+06
2.68058 1.55458e+06
2.68258 1.07405e+06
2.68458 1.31298e+06
2.68658 1.83943e+06
2.68858 637317
2.69058 420828
2.69258 856154
2.69458 604453
2.69658 1.09111e+08
2.69858 1.30705e+06
2.70059 1.10065e+06
2.70259 1.78637e+06
2.70459 1.61401e+06
2.70659 1.04903e+06
2.70859 1.65099e+06
2.71059 1.02889e+06
2.71259 2.36065e+06
2.71459 373601
2.71659 1.90991e+06
2.71859 1.70765e+06
2.72059 853452
2.72259 2.20633e+06
2.72459 967456
2.72659 630920
2.72859 966671
2.73059 1.0087e+06
2.73259 1.35676e+06
2.73459 1.11321e+06
2.73659 359779
2.73859 1.02344e+06
2.74059 1.72557e+06
2.74259 373197
2.74459 1.56166e+06
2.7466 1.24858e+06
2.7486 646048
2.7506 251457
2.7526 645823
2.7546 885312
2.7566 1.10921e+06
2.7586 2.18937e+06
2.7606 1.71735e+06
2.7626 446805
2.7646 1.50762e+06
2.7666 893629
2.7686 1.29319e+06
2.7706 1.31291e+06
2.7726 856307
2.7746 1.71704e+06
2.7766 1.22646e+06
2.7786 3.35943e+06
2.7806 695903
2.7826 911466
2.7846 918696
2.7866 322345
2.7886 2.27376e+06
2.7906 2.23004e+06
2.79261 773635
2.79461 783713
2.79661 2.24074e+06
2.79861 761338
2.80061 643429
2.80261 332922
2.80461 1.32834e+06
2.80661 879445
2.80861 1.12429e+06
2.81061 780174
2.81261 686036
2.81461 376436
2.81661 2.49916e+06
2.81861 583117
2.82061 1.18634e+06
2.82261 1.83974e+06
2.82461 1.08397e+06
2.82661 742881
2.82861 923259
2.83061 867756
2.83261 416297
2.83461 684114
2.83661 1.37677e+06
2.83862 726493
2.84062 639692
2.84262 1.82065e+06
2.84462 1.50337e+06
2.84662 1.60063e+06
2.84862 638704
2.85062 1.03635e+06
2.85262 2.04892e+06
2.85462 268977
2.85662 1.45561e+06
2.85712 0.0