File: SRC_files/py_figures/XRD_data/n1000_p0.txt
0.0 0.0
0.00200043 2.24408e-16
0.00400087 7.14654e-17
0.0060013 1.01739e-16
0.00800173 1.30562e-17
0.0100022 5.94147e-18
0.0120026 0.0
0.014003 0.0
0.0160035 0.0
0.0180039 0.0
0.0200043 0.0
0.0220048 0.0
0.0240052 9.15578e-18
0.0260056 2.68631e-18
0.0280061 1.67036e-18
0.0300065 2.33937e-18
0.0320069 1.55478e-18
0.0340074 2.25254e-18
0.0360078 0.0
0.0380082 0.0
0.0400087 0.0
0.0420091 0.0
0.0440095 0.0
0.04601 0.0
0.0480104 1.9709e-18
0.0500108 1.93737e-18
0.0520113 1.14075e-18
0.0540117 5.75448e-19
0.0560121 3.45233e-18
0.0580126 0.0
0.060013 0.0
0.0620134 0.0
0.0640139 0.0
0.0660143 0.0
0.0680147 0.0
0.0700152 2.0821e-18
0.0720156 9.13101e-20
0.074016 8.56617e-19
0.0760165 8.76053e-19
0.0780169 5.65085e-19
0.0800173 3.37883e-18
0.0820178 0.0
0.0840182 0.0
0.0860186 0.0
0.0880191 0.0
0.0900195 0.0
0.0920199 0.0
0.0940204 1.20131e-19
0.0960208 5.91011e-19
0.0980212 9.05666e-20
0.100022 3.11665e-20
0.102022 3.91283e-19
0.104023 0.0
0.106023 0.0
0.108023 0.0
0.110024 0.0
0.112024 0.0
0.114025 0.0
0.116025 5.21419e-19
0.118026 2.34433e-18
0.120026 9.38452e-19
0.122026 1.0005e-18
0.124027 1.13443e-19
0.126027 5.09412e-19
0.128028 0.0
0.130028 0.0
0.132029 0.0
0.134029 0.0
0.136029 0.0
0.13803 0.0
0.14003 3.59396e-19
0.142031 3.42427e-18
0.144031 1.07072e-18
0.146032 6.07253e-19
0.148032 1.54714e-19
0.150033 0.0
0.152033 0.0
0.154033 0.0
0.156034 0.0
0.158034 0.0
0.160035 0.0
0.162035 1.32302e-18
0.164036 9.75101e-19
0.166036 1.7991e-20
0.168036 1.46293e-18
0.170037 3.02165e-18
0.172037 2.38009e-19
0.174038 0.0
0.176038 0.0
0.178039 0.0
0.180039 0.0
0.182039 0.0
0.18404 0.0
0.18604 2.09548e-16
0.188041 7.3557e-17
0.190041 3.58504e-18
0.192042 3.61336e-19
0.194042 3.15167e-18
0.196042 0.0
0.198043 0.0
0.200043 0.0
0.202044 0.0
0.204044 0.0
0.206045 0.0
0.208045 5.15875e-19
0.210046 3.06397e-19
0.212046 2.8579e-19
0.214046 3.84465e-19
0.216047 4.50149e-19
0.218047 3.43253e-19
0.220048 0.0
0.222048 0.0
0.224049 0.0
0.226049 0.0
0.228049 0.0
0.23005 0.0
0.23205 4.69343e-19
0.234051 2.09104e-18
0.236051 6.05199e-19
0.238052 1.46481e-18
0.240052 1.8779e-19
0.242052 0.0
0.244053 0.0
0.246053 0.0
0.248054 0.0
0.250054 0.0
0.252055 0.0
0.254055 3.09701e-19
0.256055 8.34603e-19
0.258056 8.8497e-20
0.260056 1.47022e-18
0.262057 1.61437e-19
0.264057 1.11158e-18
0.266058 0.0
0.268058 0.0
0.270059 0.0
0.272059 0.0
0.274059 0.0
0.27606 0.0
0.27806 2.05712e-19
0.280061 2.39391e-19
0.282061 3.08084e-19
0.284062 1.25956e-18
0.286062 8.86589e-19
0.288062 1.99002e-18
0.290063 0.0
0.292063 0.0
0.294064 0.0
0.296064 0.0
0.298065 0.0
0.300065 0.0
0.302065 9.0075e-19
0.304066 9.1031e-19
0.306066 1.01063e-19
0.308067 9.42013e-18
0.310067 4.74809e-19
0.312068 0.0
0.314068 0.0
0.316068 0.0
0.318069 0.0
0.320069 0.0
0.32207 0.0
0.32407 1.2848e-19
0.326071 1.49963e-19
0.328071 9.72251e-20
0.330072 2.13359e-19
0.332072 8.45016e-19
0.334072 1.33684e-19
0.336073 0.0
0.338073 0.0
0.340074 0.0
0.342074 0.0
0.344075 0.0
0.346075 0.0
0.348075 1.96411e-19
0.350076 3.51081e-19
0.352076 3.82698e-19
0.354077 7.73152e-20
0.356077 2.24739e-19
0.358078 0.0
0.360078 0.0
0.362078 0.0
0.364079 0.0
0.366079 0.0
0.36808 0.0
0.37008 9.78578e-18
0.372081 2.34055e-18
0.374081 1.39459e-17
0.376082 3.10619e-18
0.378082 1.00799e-18
0.380082 3.24704e-18
0.382083 0.0
0.384083 0.0
0.386084 0.0
0.388084 0.0
0.390085 0.0
0.392085 0.0
0.394085 6.47978e-21
0.396086 7.95888e-19
0.398086 1.39508e-18
0.400087 6.31182e-19
0.402087 2.99656e-19
0.404088 0.0
0.406088 0.0
0.408088 0.0
0.410089 0.0
0.412089 0.0
0.41409 0.0
0.41609 2.80275e-19
0.418091 6.53767e-20
0.420091 1.69102e-19
0.422091 2.58816e-19
0.424092 5.13737e-19
0.426092 2.77958e-18
0.428093 0.0
0.430093 0.0
0.432094 0.0
0.434094 0.0
0.436095 0.0
0.438095 0.0
0.440095 2.83695e-19
0.442096 2.79793e-20
0.444096 2.99001e-19
0.446097 3.25651e-19
0.448097 1.42146e-19
0.450098 0.0
0.452098 0.0
0.454098 0.0
0.456099 0.0
0.458099 0.0
0.4601 0.0
0.4621 2.1619e-19
0.464101 2.80654e-19
0.466101 7.78064e-19
0.468101 1.09457e-19
0.470102 1.62893e-20
0.472102 3.90574e-19
0.474103 0.0
0.476103 0.0
0.478104 0.0
0.480104 0.0
0.482104 0.0
0.484105 0.0
0.486105 2.31012e-19
0.488106 4.28206e-19
0.490106 3.36162e-19
0.492107 2.19767e-18
0.494107 8.2511e-18
0.496108 0.0
0.498108 0.0
0.500108 0.0
0.502109 0.0
0.504109 0.0
0.50611 0.0
0.50811 4.47481e-19
0.510111 1.7958e-19
0.512111 6.82303e-20
0.514111 3.40608e-20
0.516112 9.30368e-19
0.518112 7.0297e-20
0.520113 0.0
0.522113 0.0
0.524114 0.0
0.526114 0.0
0.528114 0.0
0.530115 0.0
0.532115 2.15167e-19
0.534116 4.79587e-19
0.536116 6.08083e-20
0.538117 2.20489e-21
0.540117 1.62127e-19
0.542117 5.77315e-20
0.544118 0.0
0.546118 0.0
0.548119 0.0
0.550119 0.0
0.55212 0.0
0.55412 0.0
0.556121 1.27619e-18
0.558121 8.21489e-19
0.560121 2.08547e-19
0.562122 4.4305e-18
0.564122 3.43111e-20
0.566123 0.0
0.568123 0.0
0.570124 4.19505e-21
0.572124 1.14785e-20
0.574124 1.32471e-20
0.576125 5.71781e-21
0.578125 9.20351e-20
0.580126 1.51811e-18
0.582126 2.50462e-19
0.584127 7.53169e-19
0.586127 1.87896e-19
0.588127 2.30583e-19
0.590128 6.28435e-21
0.592128 1.64228e-20
0.594129 1.49936e-21
0.596129 2.33299e-20
0.59813 1.7057e-20
0.60013 2.03678e-20
0.60213 6.34162e-19
0.604131 5.44447e-19
0.606131 1.23745e-19
0.608132 2.50705e-19
0.610132 9.41672e-19
0.612133 5.49792e-21
0.614133 9.0518e-20
0.616134 7.49782e-21
0.618134 1.21942e-19
0.620134 2.52631e-19
0.622135 9.20382e-21
0.624135 6.69442e-20
0.626136 2.56591e-19
0.628136 1.05582e-18
0.630137 8.25575e-19
0.632137 4.47108e-20
0.634137 5.48917e-19
0.636138 1.65412e-20
0.638138 4.35543e-20
0.640139 6.67297e-21
0.642139 1.12459e-20
0.64414 9.37631e-21
0.64614 3.68198e-20
0.64814 5.21762e-19
0.650141 3.18519e-19
0.652141 9.42599e-19
0.654142 1.56691e-18
0.656142 1.35793e-18
0.658143 3.56627e-20
0.660143 8.77645e-21
0.662144 2.36153e-20
0.664144 3.37646e-20
0.666144 4.20958e-20
0.668145 1.39084e-20
0.670145 3.90344e-19
0.672146 7.90111e-18
0.674146 3.39502e-17
0.676147 5.1042e-19
0.678147 2.47522e-19
0.680147 1.97682e-18
0.682148 1.96015e-19
0.684148 1.20749e-19
0.686149 3.81312e-20
0.688149 0.0
0.69015 1.74776e-20
0.69215 4.62432e-20
0.69415 1.01537e-19
0.696151 2.5543e-19
0.698151 5.1547e-19
0.700152 2.10763e-18
0.702152 1.4289e-18
0.704153 2.25815e-20
0.706153 1.24228e-20
0.708153 0.0
0.710154 8.04059e-20
0.712154 2.16588e-20
0.714155 9.08043e-20
0.716155 5.59591e-19
0.718156 3.45354e-19
0.720156 5.52832e-19
0.722157 3.15683e-19
0.724157 1.35874e-19
0.726157 2.15426e-19
0.728158 3.53203e-20
0.730158 2.60568e-19
0.732159 4.0639e-20
0.734159 5.83702e-21
0.73616 7.44957e-20
0.73816 1.9786e-20
0.74016 4.67204e-19
0.742161 1.64465e-18
0.744161 1.05821e-18
0.746162 4.57566e-18
0.748162 3.55753e-18
0.750163 6.10783e-20
0.752163 1.2627e-19
0.754163 2.46276e-21
0.756164 0.0
0.758164 0.0
0.760165 6.93367e-21
0.762165 4.9965e-19
0.764166 6.10935e-19
0.766166 1.89861e-18
0.768166 1.10322e-18
0.770167 8.45918e-19
0.772167 2.81888e-19
0.774168 4.28235e-20
0.776168 4.28182e-19
0.778169 4.85788e-21
0.780169 1.08668e-20
0.78217 0.0
0.78417 2.89505e-20
0.78617 1.88705e-18
0.788171 1.49578e-17
0.790171 1.08027e-18
0.792172 1.12024e-18
0.794172 2.99107e-19
0.796173 1.70594e-18
0.798173 0.0
0.800173 4.93244e-18
0.802174 6.42889e-20
0.804174 1.08281e-20
0.806175 0.0
0.808175 2.87199e-20
0.810176 1.08314e-19
0.812176 1.22065e-18
0.814176 1.1138e-18
0.816177 1.03472e-18
0.818177 1.88634e-18
0.820178 8.40063e-20
0.822178 2.90204e-20
0.824179 0.0
0.826179 8.55105e-20
0.828179 3.64288e-20
0.83018 0.0
0.83218 2.14913e-19
0.834181 1.296e-18
0.836181 1.26364e-18
0.838182 1.28507e-19
0.840182 6.65736e-21
0.842183 2.73571e-18
0.844183 7.36997e-20
0.846183 2.27256e-20
0.848184 8.7526e-20
0.850184 0.0
0.852185 1.02631e-19
0.854185 0.0
0.856186 6.66339e-20
0.858186 1.15168e-17
0.860186 1.30403e-17
0.862187 1.27766e-18
0.864187 1.14124e-18
0.866188 9.93398e-21
0.868188 0.0
0.870189 1.47618e-20
0.872189 0.0
0.874189 4.20819e-20
0.87619 0.0
0.87819 5.47499e-19
0.880191 6.34747e-19
0.882191 3.20728e-19
0.884192 5.98824e-18
0.886192 9.12735e-19
0.888192 1.64849e-19
0.890193 3.00577e-19
0.892193 0.0
0.894194 2.49899e-20
0.896194 0.0
0.898195 1.41658e-19
0.900195 0.0
0.902196 4.4124e-19
0.904196 1.16943e-18
0.906196 6.30686e-19
0.908197 1.37467e-18
0.910197 2.16061e-19
0.912198 1.96136e-19
0.914198 0.0
0.916199 1.60381e-19
0.918199 0.0
0.920199 4.5629e-20
0.9222 0.0
0.9242 1.55347e-18
0.926201 4.93877e-19
0.928201 8.55126e-19
0.930202 3.46469e-18
0.932202 1.70602e-18
0.934202 1.36751e-18
0.936203 0.0
0.938203 4.17347e-19
0.940204 1.16695e-19
0.942204 0.0
0.944205 2.13351e-19
0.946205 0.0
0.948205 1.15675e-19
0.950206 2.43824e-18
0.952206 2.78461e-19
0.954207 1.21408e-18
0.956207 3.34142e-18
0.958208 0.0
0.960208 1.72148e-18
0.962209 0.0
0.964209 5.33897e-20
0.966209 3.70313e-20
0.96821 0.0
0.97021 1.00783e-19
0.972211 1.01072e-18
0.974211 4.19961e-18
0.976212 9.12195e-19
0.978212 3.84138e-19
0.980212 5.43877e-19
0.982213 6.19119e-19
0.984213 1.29587e-18
0.986214 5.41222e-20
0.988214 1.80961e-19
0.990215 3.40889e-19
0.992215 7.78332e-19
0.994215 1.26776e-18
0.996216 2.04673e-18
0.998216 4.55226e-19
1.00022 1.13394e-18
1.00222 1.5005e-19
1.00422 5.11913e-19
1.00622 3.41443e-19
1.00822 1.51291e-19
1.01022 1.44634e-19
1.01222 5.729e-19
1.01422 8.19803e-19
1.01622 1.25698e-18
1.01822 1.64918e-19
1.02022 2.41602e-18
1.02222 1.2513e-18
1.02422 3.84768e-19
1.02622 9.95935e-18
1.02822 3.13898e-20
1.03022 1.40402e-19
1.03222 2.23851e-19
1.03422 1.32127e-19
1.03622 1.88449e-19
1.03823 2.34731e-19
1.04023 1.86616e-18
1.04223 3.64651e-17
1.04423 1.38351e-16
1.04623 2.54328e-17
1.04823 2.65115e-17
1.05023 6.62673e-18
1.05223 1.40786e-18
1.05423 6.20568e-19
1.05623 7.63191e-19
1.05823 1.07352e-18
1.06023 7.24554e-20
1.06223 4.50683e-19
1.06423 2.69522e-18
1.06623 3.90354e-19
1.06823 7.57478e-19
1.07023 1.98125e-17
1.07223 6.22376e-19
1.07423 1.03747e-18
1.07623 3.33731e-19
1.07823 1.53837e-19
1.08023 9.82466e-20
1.08223 8.16963e-19
1.08423 2.68034e-19
1.08624 1.49006e-18
1.08824 2.24059e-18
1.09024 6.25926e-19
1.09224 5.44079e-18
1.09424 4.8741e-18
1.09624 9.72561e-19
1.09824 8.14978e-20
1.10024 2.98126e-20
1.10224 2.98252e-18
1.10424 1.29572e-19
1.10624 5.97098e-20
1.10824 3.73086e-18
1.11024 1.07145e-18
1.11224 2.72858e-18
1.11424 1.77299e-19
1.11624 3.37742e-19
1.11824 2.1966e-19
1.12024 7.90941e-20
1.12224 9.78961e-20
1.12424 1.86936e-19
1.12624 1.18765e-18
1.12824 8.12462e-19
1.13024 4.86045e-19
1.13225 5.77409e-20
1.13425 1.09823e-18
1.13625 4.26499e-18
1.13825 2.51095e+09
1.14025 9.13132e-19
1.14225 3.10571e-18
1.14425 6.66798e-18
1.14625 2.44057e-18
1.14825 2.13022e-18
1.15025 1.81364e-18
1.15225 8.19393e-19
1.15425 1.34231e-18
1.15625 8.17883e-19
1.15825 6.65958e-19
1.16025 1.31671e-18
1.16225 6.2896e-19
1.16425 1.28329e-18
1.16625 1.89856e-18
1.16825 5.23097e-19
1.17025 6.87197e-19
1.17225 9.83953e-19
1.17425 6.61046e-19
1.17625 3.01912e-19
1.17826 1.29583e-18
1.18026 1.61737e-18
1.18226 1.15706e-18
1.18426 8.91548e-19
1.18626 2.48544e-18
1.18826 3.35909e-18
1.19026 5.85679e-18
1.19226 1.40932e-18
1.19426 2.79273e-18
1.19626 3.59301e-18
1.19826 3.59149e-18
1.20026 4.5474e-18
1.20226 1.84085e-18
1.20426 1.04257e-18
1.20626 2.1476e-18
1.20826 6.96995e-19
1.21026 1.88564e-18
1.21226 3.50312e-19
1.21426 2.19243e-18
1.21626 5.43348e-19
1.21826 4.62794e-19
1.22026 4.06908e-19
1.22226 8.40462e-19
1.22427 2.18796e-18
1.22627 4.85119e-18
1.22827 1.39056e-18
1.23027 7.96573e-18
1.23227 4.38454e-18
1.23427 7.24211e-19
1.23627 1.1977e-18
1.23827 9.92136e-19
1.24027 1.32383e-18
1.24227 1.0336e-18
1.24427 8.26246e-19
1.24627 1.25894e-17
1.24827 1.69192e-18
1.25027 5.37134e-19
1.25227 1.28934e-18
1.25427 1.2143e-18
1.25627 1.75896e-18
1.25827 9.51144e-18
1.26027 2.03163e-18
1.26227 2.46863e-18
1.26427 1.99343e-18
1.26627 1.45888e-18
1.26827 2.17715e-18
1.27028 1.25955e-18
1.27228 9.12252e-18
1.27428 1.53521e-18
1.27628 1.31058e-18
1.27828 3.54288e-18
1.28028 1.40531e-18
1.28228 1.83444e-18
1.28428 1.2426e-18
1.28628 2.96792e-18
1.28828 2.68436e-19
1.29028 1.80903e-18
1.29228 1.50922e-18
1.29428 2.64436e-18
1.29628 4.95997e-18
1.29828 3.46886e-19
1.30028 6.04893e-19
1.30228 3.57801e-18
1.30428 9.06938e-19
1.30628 2.33533e-18
1.30828 8.37424e-19
1.31028 1.17065e-18
1.31228 7.49486e-19
1.31428 7.65843e-19
1.31629 8.99936e-19
1.31829 2.19298e-18
1.32029 8.40194e-18
1.32229 8.23621e-19
1.32429 1.03471e-17
1.32629 4.2739e-19
1.32829 2.95212e+09
1.33029 2.29692e-18
1.33229 1.12792e-17
1.33429 1.66065e-18
1.33629 2.84038e-18
1.33829 2.84702e-18
1.34029 1.79953e-18
1.34229 1.90858e-18
1.34429 2.19099e-18
1.34629 7.7675e-19
1.34829 2.51302e-18
1.35029 2.08647e-18
1.35229 1.87307e-18
1.35429 1.06155e-18
1.35629 7.80488e-19
1.35829 6.13584e-19
1.36029 1.15416e-18
1.3623 1.42832e-18
1.3643 7.21073e-18
1.3663 8.76104e-18
1.3683 1.75213e-18
1.3703 2.15413e-19
1.3723 1.66907e-18
1.3743 2.92469e-18
1.3763 1.22443e-18
1.3783 1.72216e-18
1.3803 4.88755e-19
1.3823 1.05688e-18
1.3843 4.61307e-18
1.3863 4.50009e-18
1.3883 1.66841e-18
1.3903 1.57329e-18
1.3923 1.38288e-18
1.3943 1.99219e-18
1.3963 3.08991e-18
1.3983 1.95098e-18
1.4003 7.23625e-19
1.4023 1.8087e-18
1.4043 1.60317e-18
1.4063 6.36508e-19
1.40831 4.01641e-19
1.41031 4.04302e-18
1.41231 3.11875e-18
1.41431 3.37553e-18
1.41631 2.48551e-18
1.41831 3.7374e-18
1.42031 1.2202e-18
1.42231 1.89792e-18
1.42431 5.49593e-19
1.42631 1.98027e-18
1.42831 4.82455e-19
1.43031 1.07429e-18
1.43231 3.3509e-18
1.43431 6.00441e-18
1.43631 8.86463e-19
1.43831 7.7935e-19
1.44031 1.00461e-18
1.44231 1.23957e-18
1.44431 2.45916e-19
1.44631 4.61918e-19
1.44831 3.36528e-19
1.45031 1.28595e-18
1.45231 1.44461e-18
1.45432 6.63036e-19
1.45632 6.92068e-19
1.45832 4.70998e-19
1.46032 9.93403e-19
1.46232 7.01233e-20
1.46432 5.24041e-19
1.46632 1.49225e-19
1.46832 1.18494e-19
1.47032 1.62649e-18
1.47232 4.79648e-19
1.47432 2.89181e-19
1.47632 1.9209e-19
1.47832 7.54912e-19
1.48032 6.77689e-19
1.48232 5.3405e-19
1.48432 5.28556e-19
1.48632 5.98179e-19
1.48832 2.34417e-18
1.49032 6.99827e-19
1.49232 1.09765e-18
1.49432 3.95705e-19
1.49632 2.80454e-18
1.49832 4.7449e-19
1.50033 1.09621e-18
1.50233 1.308e-18
1.50433 1.88786e-18
1.50633 1.41286e-18
1.50833 4.68925e-18
1.51033 9.73812e-19
1.51233 3.57758e-18
1.51433 1.93343e-18
1.51633 5.59177e-19
1.51833 1.11446e-18
1.52033 1.04343e-18
1.52233 1.51305e-18
1.52433 2.32466e-18
1.52633 1.02974e-18
1.52833 2.80409e-18
1.53033 9.83031e-19
1.53233 1.13159e-17
1.53433 8.0527e-18
1.53633 7.83397e-18
1.53833 4.15285e-18
1.54033 2.88029e-17
1.54233 4.02874e-18
1.54433 4.28924e-17
1.54634 1.47122e-18
1.54834 1.33321e-18
1.55034 5.43395e-18
1.55234 4.54485e-19
1.55434 2.9053e-18
1.55634 1.72677e-18
1.55834 1.20588e-18
1.56034 6.09488e-19
1.56234 5.12916e-19
1.56434 1.84851e-18
1.56634 1.10501e-18
1.56834 4.07827e-18
1.57034 1.36911e-18
1.57234 2.2128e-18
1.57434 1.19118e-18
1.57634 1.35074e-17
1.57834 2.54377e-18
1.58034 7.05478e-19
1.58234 1.00848e-18
1.58434 1.24811e-18
1.58634 1.25238e-18
1.58834 1.57987e-18
1.59034 1.8436e-19
1.59235 7.52158e-19
1.59435 4.98919e-18
1.59635 3.07292e-18
1.59835 2.34839e-18
1.60035 8.56652e-19
1.60235 1.69925e-18
1.60435 2.27684e-18
1.60635 1.55972e-18
1.60835 1.23553e-18
1.61035 9.61999e-19
1.61235 9.46188e-19
1.61435 5.4304e-19
1.61635 5.98656e-19
1.61835 1.4951e-17
1.62035 1.18156e-18
1.62235 1.71287e-18
1.62435 6.11654e-19
1.62635 1.49054e-18
1.62835 6.39915e-19
1.63035 4.02364e-19
1.63235 3.86063e-19
1.63435 4.29147e-18
1.63635 1.07043e-18
1.63836 9.37829e-19
1.64036 3.6252e-18
1.64236 6.59842e-19
1.64436 1.37387e-18
1.64636 1.64036e-18
1.64836 1.23457e-18
1.65036 1.55658e-18
1.65236 1.66775e-18
1.65436 5.40941e-18
1.65636 4.52243e-18
1.65836 1.03552e-18
1.66036 3.87349e-19
1.66236 3.68557e-18
1.66436 7.20395e-19
1.66636 1.12101e-18
1.66836 6.00596e-18
1.67036 4.97328e-19
1.67236 2.36317e-18
1.67436 1.13927e-18
1.67636 4.43975e-19
1.67836 5.27723e-18
1.68036 1.89987e-19
1.68236 2.57607e-18
1.68437 7.02777e-19
1.68637 1.59217e-18
1.68837 1.46062e-18
1.69037 4.47096e-19
1.69237 1.20356e-18
1.69437 1.14473e-18
1.69637 4.50552e-18
1.69837 1.22582e-18
1.70037 6.6268e-19
1.70237 7.97081e-19
1.70437 1.16028e-18
1.70637 5.4423e-18
1.70837 2.0951e-18
1.71037 1.28559e-18
1.71237 5.1337e-17
1.71437 4.31334e-18
1.71637 5.04698e-18
1.71837 1.32834e-18
1.72037 8.01037e-19
1.72237 6.75679e-19
1.72437 1.00818e-18
1.72637 3.53071e-19
1.72837 6.27614e-19
1.73038 7.05571e-19
1.73238 2.8301e-18
1.73438 8.76187e-19
1.73638 1.41828e-18
1.73838 8.93193e-19
1.74038 4.20223e-19
1.74238 1.03867e-18
1.74438 1.45685e-19
1.74638 6.7505e-19
1.74838 2.75169e-19
1.75038 1.55076e-18
1.75238 9.69298e-19
1.75438 3.56138e-19
1.75638 7.10117e-19
1.75838 1.39683e-18
1.76038 5.23494e-19
1.76238 1.44691e-18
1.76438 1.02201e-18
1.76638 2.42775e-19
1.76838 1.33172e-18
1.77038 5.046e-19
1.77238 1.70637e-18
1.77438 1.27671e-18
1.77638 1.00335e-18
1.77839 2.42112e-18
1.78039 4.05227e-18
1.78239 2.83069e-18
1.78439 1.15017e-18
1.78639 1.19567e-18
1.78839 3.91083e-19
1.79039 8.55197e-19
1.79239 1.41398e-18
1.79439 8.731e-19
1.79639 2.5029e-17
1.79839 3.19874e-18
1.80039 4.76155e-18
1.80239 7.77133e-19
1.80439 1.10642e-17
1.80639 1.14053e-18
1.80839 1.56846e-17
1.81039 7.60205e-18
1.81239 1.01912e-17
1.81439 3.11591e-18
1.81639 3.23297e-18
1.81839 2.2024e-18
1.82039 1.72873e-18
1.82239 2.46961e-18
1.8244 1.46049e-18
1.8264 4.63686e-19
1.8284 1.23197e-18
1.8304 3.90719e-18
1.8324 2.42864e-18
1.8344 6.40889e-19
1.8364 5.79905e-19
1.8384 8.56426e-19
1.8404 1.04738e-18
1.8424 3.75013e-19
1.8444 2.14817e-18
1.8464 8.34679e-19
1.8484 1.99097e-18
1.8504 1.63111e-18
1.8524 6.85895e-19
1.8544 1.68537e-18
1.8564 1.40799e-18
1.8584 3.29386e-19
1.8604 1.78489e-18
1.8624 5.41699e-19
1.8644 8.10755e-19
1.8664 1.22207e-18
1.8684 2.99719e-19
1.87041 7.01554e-19
1.87241 6.96544e-19
1.87441 1.21473e-18
1.87641 1.44597e-18
1.87841 1.24655e-18
1.88041 1.61716e-18
1.88241 8.4992e-19
1.88441 8.22096e-19
1.88641 5.32316e-18
1.88841 3.26867e-19
1.89041 4.51696e-19
1.89241 2.0457e-19
1.89441 1.88383e-18
1.89641 1.27454e-18
1.89841 2.52288e-18
1.90041 2.20271e-18
1.90241 1.4446e-17
1.90441 4.36284e-17
1.90641 4.83919e-19
1.90841 1.03661e-18
1.91041 8.29624e-19
1.91241 6.96923e-19
1.91441 8.11445e-19
1.91642 1.74306e-18
1.91842 1.17824e-18
1.92042 7.46065e-18
1.92242 2.24037e-18
1.92442 1.87566e-18
1.92642 3.19342e-18
1.92842 4.6512e-18
1.93042 1.26716e-18
1.93242 4.9618e-19
1.93442 2.73305e-19
1.93642 1.54055e-18
1.93842 6.00364e-19
1.94042 1.14274e-18
1.94242 2.78308e-18
1.94442 6.94346e-18
1.94642 8.24627e-19
1.94842 7.06922e-19
1.95042 7.84045e-19
1.95242 8.29702e-19
1.95442 7.90258e-19
1.95642 3.7559e-19
1.95842 2.26405e-18
1.96042 4.62627e-18
1.96243 3.02691e-19
1.96443 4.30861e-18
1.96643 1.83468e-18
1.96843 2.75759e-18
1.97043 3.85259e-18
1.97243 4.49995e-18
1.97443 1.68054e-18
1.97643 9.56746e-18
1.97843 6.51059e-18
1.98043 1.78368e-18
1.98243 1.84705e-18
1.98443 2.28652e-18
1.98643 4.07255e-18
1.98843 2.90291e-18
1.99043 7.96313e-18
1.99243 4.95047e+08
1.99443 7.46715e-18
1.99643 2.49757e-18
1.99843 4.71384e-18
2.00043 3.23115e-18
2.00243 1.45825e-18
2.00443 1.12058e-18
2.00643 6.27779e-19
2.00844 1.48031e-18
2.01044 8.61995e-19
2.01244 3.7252e-18
2.01444 1.56007e-18
2.01644 1.54729e-18
2.01844 1.43994e-18
2.02044 1.24157e-18
2.02244 1.25359e-18
2.02444 5.61812e-19
2.02644 1.78714e-18
2.02844 1.28637e-18
2.03044 1.60062e-18
2.03244 1.7185e-17
2.03444 3.05634e-18
2.03644 1.64154e-18
2.03844 2.08344e-18
2.04044 2.61691e-18
2.04244 3.54984e-18
2.04444 9.07267e-19
2.04644 6.65607e-18
2.04844 2.86362e-18
2.05044 1.32727e-18
2.05244 4.1767e-18
2.05445 8.98452e-18
2.05645 4.95837e-18
2.05845 6.67515e-18
2.06045 9.2367e-18
2.06245 6.24805e-18
2.06445 1.97855e-18
2.06645 3.78991e-17
2.06845 4.76535e-18
2.07045 2.04313e-18
2.07245 4.81982e-18
2.07445 6.10279e-17
2.07645 1.5509e-17
2.07845 4.52062e-18
2.08045 1.31275e-16
2.08245 1.88288e-17
2.08445 4.67682e-17
2.08645 5.8493e-16
2.08845 5.75094e+09
2.09045 7.74191e-18
2.09245 9.41545e-18
2.09445 1.56321e-17
2.09645 2.9065e-18
2.09845 2.51557e-18
2.10046 2.5034e-18
2.10246 4.54254e-18
2.10446 3.85236e-18
2.10646 7.66463e-18
2.10846 2.31275e-18
2.11046 3.63555e-18
2.11246 3.16121e-18
2.11446 7.61032e-19
2.11646 3.8456e-18
2.11846 1.0961e-17
2.12046 9.23215e-18
2.12246 1.80938e-18
2.12446 2.20149e-18
2.12646 7.25708e-18
2.12846 1.43286e-18
2.13046 2.54417e-18
2.13246 5.77615e-18
2.13446 1.84079e-18
2.13646 1.8727e-18
2.13846 9.63074e-19
2.14046 1.44319e-18
2.14246 1.88374e-18
2.14446 9.50126e-19
2.14647 1.13685e-18
2.14847 2.5472e-18
2.15047 2.13565e-18
2.15247 2.17934e-18
2.15447 2.99759e-18
2.15647 5.39229e-18
2.15847 7.59824e-18
2.16047 2.56941e-18
2.16247 3.87356e-18
2.16447 2.27313e-17
2.16647 3.70199e-18
2.16847 8.66709e-19
2.17047 6.92385e-19
2.17247 2.8056e-18
2.17447 2.24869e-18
2.17647 7.28028e-19
2.17847 6.06996e-19
2.18047 1.17509e-18
2.18247 8.35049e-19
2.18447 5.17325e-19
2.18647 8.11302e-19
2.18847 2.54244e-18
2.19047 1.32247e-18
2.19248 8.96023e-19
2.19448 1.48325e-18
2.19648 3.33868e-18
2.19848 1.55835e-18
2.20048 3.82409e-18
2.20248 2.54674e-18
2.20448 3.938e-18
2.20648 3.1308e-18
2.20848 4.03377e-18
2.21048 5.99148e-19
2.21248 3.11931e-18
2.21448 1.20527e-18
2.21648 1.5188e-18
2.21848 1.5267e-18
2.22048 2.13651e-18
2.22248 1.28975e-17
2.22448 3.50368e-18
2.22648 3.8931e-18
2.22848 2.68257e-18
2.23048 1.035e-18
2.23248 7.13891e-18
2.23448 1.05872e-17
2.23648 5.7364e-18
2.23849 3.4536e-18
2.24049 2.37342e-18
2.24249 2.17325e-17
2.24449 4.57209e-18
2.24649 6.33762e-19
2.24849 1.66773e-18
2.25049 2.28893e-18
2.25249 2.12719e-18
2.25449 1.83811e-18
2.25649 3.3392e-18
2.25849 1.78429e-18
2.26049 9.39798e-19
2.26249 2.41044e-18
2.26449 7.86181e-19
2.26649 1.48502e-18
2.26849 1.01704e-17
2.27049 6.53932e-18
2.27249 3.21501e-18
2.27449 4.23497e-18
2.27649 9.04854e+07
2.27849 4.22282e-18
2.28049 1.65758e-18
2.28249 3.6262e-18
2.2845 2.89672e-18
2.2865 4.29768e-18
2.2885 2.10182e-18
2.2905 1.17542e-18
2.2925 2.51343e-18
2.2945 1.64477e+08
2.2965 3.55913e-18
2.2985 3.0763e-17
2.3005 3.1658e-18
2.3025 4.68516e-18
2.3045 3.31009e-18
2.3065 1.74742e-18
2.3085 2.12079e-18
2.3105 8.73968e-19
2.3125 1.48398e-18
2.3145 4.49138e-17
2.3165 1.32523e-17
2.3185 4.53473e-18
2.3205 3.08478e-18
2.3225 1.44259e-18
2.3245 2.43711e-18
2.3265 4.85688e-18
2.3285 6.14503e-18
2.33051 2.68859e-18
2.33251 2.28567e-18
2.33451 2.97799e-18
2.33651 1.69074e-18
2.33851 1.902e-18
2.34051 2.81701e-18
2.34251 2.26324e-18
2.34451 2.02127e-18
2.34651 2.95524e-18
2.34851 3.73748e-18
2.35051 2.27186e-18
2.35251 1.32333e-17
2.35451 2.07664e-18
2.35651 1.67804e-18
2.35851 1.45539e-17
2.36051 3.06358e-18
2.36251 1.68322e-18
2.36451 2.30936e-18
2.36651 6.41621e-18
2.36851 2.15105e-18
2.37051 4.61089e-18
2.37251 3.60941e-18
2.37451 2.4203e-18
2.37652 1.0472e-17
2.37852 2.98608e+08
2.38052 3.28093e+08
2.38252 4.766e-18
2.38452 5.58573e-18
2.38652 5.26224e-18
2.38852 1.91115e-17
2.39052 3.64211e-18
2.39252 1.20017e-17
2.39452 1.17771e-17
2.39652 2.36279e-18
2.39852 4.83894e-16
2.40052 1.19659e+10
2.40252 1.3936e-17
2.40452 4.39756e-17
2.40652 1.9437e-17
2.40852 2.79416e-18
2.41052 7.46525e-18
2.41252 7.17235e-18
2.41452 8.12565e-18
2.41652 2.37085e+10
2.41852 3.25989e-17
2.42052 1.40159e-17
2.42253 8.87329e-19
2.42453 1.19795e-17
2.42653 4.16959e-18
2.42853 4.18201e-18
2.43053 3.2899e-18
2.43253 4.49453e-18
2.43453 2.25108e-18
2.43653 4.59735e-18
2.43853 3.63668e-18
2.44053 3.24582e-18
2.44253 2.25363e-18
2.44453 2.8867e-18
2.44653 5.06917e-18
2.44853 5.10356e-18
2.45053 3.76062e-18
2.45253 6.83144e-18
2.45453 6.58294e-18
2.45653 9.71463e-18
2.45853 1.49996e-18
2.46053 2.55212e-18
2.46253 1.32675e-18
2.46453 1.9284e-18
2.46653 1.15517e-17
2.46853 3.3991e-18
2.47054 1.64425e-18
2.47254 2.1288e-18
2.47454 1.83889e-18
2.47654 3.04526e-18
2.47854 2.70586e-18
2.48054 4.69184e-18
2.48254 2.4852e-18
2.48454 3.00444e-18
2.48654 4.28685e-18
2.48854 2.92819e-18
2.49054 6.06642e-18
2.49254 1.73977e-18
2.49454 2.83239e-18
2.49654 1.73786e-18
2.49854 2.46972e-18
2.50054 2.01331e-18
2.50254 3.26739e-18
2.50454 1.37679e-17
2.50654 1.38861e-18
2.50854 9.00771e-18
2.51054 1.56354e-17
2.51254 2.54699e-17
2.51454 1.8958e-18
2.51655 1.72331e-18
2.51855 2.6038e-18
2.52055 4.88154e-18
2.52255 7.63159e-18
2.52455 6.91061e-18
2.52655 9.10657e-18
2.52855 6.63531e-17
2.53055 1.95944e-17
2.53255 6.54792e-18
2.53455 5.00461e-18
2.53655 6.01865e-18
2.53855 3.37825e-18
2.54055 2.43974e-18
2.54255 3.69811e-18
2.54455 6.64426e-18
2.54655 3.61909e-18
2.54855 1.82998e-18
2.55055 2.72502e-18
2.55255 3.39057e-18
2.55455 5.62526e-18
2.55655 4.19044e-18
2.55855 1.33851e-18
2.56055 6.2616e-18
2.56256 1.32197e-18
2.56456 3.79031e-18
2.56656 2.99225e-18
2.56856 8.03932e-18
2.57056 3.41457e-18
2.57256 3.71937e-18
2.57456 1.96846e-18
2.57656 1.87689e-18
2.57856 1.48469e-18
2.58056 3.66057e-18
2.58256 1.57116e-18
2.58456 2.82505e-18
2.58656 2.20353e-18
2.58856 6.13587e-18
2.59056 4.13552e-18
2.59256 2.87755e-18
2.59456 4.18917e-18
2.59656 1.37035e-18
2.59856 2.66042e-18
2.60056 2.79407e-18
2.60256 2.49363e-18
2.60456 2.7515e-18
2.60656 4.67046e-18
2.60857 1.46113e-17
2.61057 2.81829e-18
2.61257 3.3189e-18
2.61457 1.68809e-17
2.61657 2.01863e-18
2.61857 1.98185e-18
2.62057 1.43516e-18
2.62257 6.10927e-18
2.62457 1.23897e-17
2.62657 2.74237e-18
2.62857 1.84229e-18
2.63057 6.35164e-18
2.63257 1.42554e-17
2.63457 3.76115e+07
2.63657 4.2052e-18
2.63857 3.04808e-18
2.64057 1.07959e-17
2.64257 6.0634e-18
2.64457 9.21411e-18
2.64657 1.19934e-17
2.64857 7.69804e-18
2.65057 3.31002e-17
2.65257 1.86053e-17
2.65458 8.58719e-18
2.65658 4.84088e+08
2.65858 8.55045e-18
2.66058 3.29226e-17
2.66258 6.94986e-18
2.66458 5.96945e-18
2.66658 3.24765e-18
2.66858 8.47642e-18
2.67058 2.38601e-18
2.67258 1.48185e-18
2.67458 2.45975e-18
2.67658 5.17367e-18
2.67858 1.59914e-17
2.68058 3.35012e-18
2.68258 3.68249e-18
2.68458 3.09184e-18
2.68658 4.0254e-18
2.68858 2.06428e-18
2.69058 3.72278e-18
2.69258 3.09384e-18
2.69458 1.34513e-17
2.69658 3.04737e+08
2.69858 9.86942e-18
2.70059 4.63018e-18
2.70259 2.57421e-18
2.70459 3.52578e-18
2.70659 1.6767e-18
2.70859 4.04994e-18
2.71059 5.63193e-18
2.71259 3.31128e-18
2.71459 2.76703e-18
2.71659 1.93508e-18
2.71859 2.95103e-18
2.72059 1.22758e-18
2.72259 3.81253e-18
2.72459 2.26823e-18
2.72659 1.18233e-18
2.72859 3.51705e-18
2.73059 2.65688e-18
2.73259 2.03922e-18
2.73459 4.90707e-18
2.73659 1.43523e-18
2.73859 1.38497e-18
2.74059 4.69341e-18
2.74259 1.33481e-18
2.74459 8.9264e-19
2.7466 1.78757e-18
2.7486 3.33201e-18
2.7506 2.66521e-18
2.7526 3.1559e-18
2.7546 4.54917e-18
2.7566 3.40593e-18
2.7586 6.78009e-18
2.7606 4.45159e-17
2.7626 1.36823e-17
2.7646 5.80876e-18
2.7666 1.20796e-18
2.7686 2.45574e-18
2.7706 1.97934e-18
2.7726 5.74898e-18
2.7746 4.7775e-18
2.7766 3.96738e-18
2.7786 5.32162e-18
2.7806 2.73595e-18
2.7826 1.51729e-18
2.7846 1.39743e-18
2.7866 1.19305e-18
2.7886 1.33607e-18
2.7906 2.13171e-18
2.79261 1.69766e-18
2.79461 7.81334e-19
2.79661 2.87465e-18
2.79861 3.29808e-18
2.80061 1.94567e-18
2.80261 1.08552e-18
2.80461 4.29678e-18
2.80661 1.42202e-18
2.80861 2.60724e-18
2.81061 4.66084e-18
2.81261 1.31662e-18
2.81461 2.82912e-18
2.81661 3.04313e-18
2.81861 2.32642e-18
2.82061 2.85692e-18
2.82261 6.33075e-18
2.82461 4.88746e-18
2.82661 2.1695e-17
2.82861 1.79634e-18
2.83061 3.03725e-18
2.83261 1.51574e-18
2.83461 3.66639e-18
2.83661 3.43918e-18
2.83862 2.8399e-18
2.84062 8.96958e-18
2.84262 1.59609e-18
2.84462 3.66134e-18
2.84662 5.06715e-18
2.84862 4.78183e-18
2.85062 2.92472e-18
2.85262 2.93638e-18
2.85462 2.79318e-18
2.85662 7.14776e-18
2.85712 0.0