File: SRC_files/py_figures/XRD_data/n1000_p20.txt
0.0 0.0
0.00200043 2.24408e-16
0.00400087 7.14654e-17
0.0060013 1.01739e-16
0.00800173 1.30562e-17
0.0100022 5.94147e-18
0.0120026 0.0
0.014003 0.0
0.0160035 0.0
0.0180039 0.0
0.0200043 0.0
0.0220048 0.0
0.0240052 9.15578e-18
0.0260056 2.68631e-18
0.0280061 1.67036e-18
0.0300065 2.33937e-18
0.0320069 1.55478e-18
0.0340074 2.25254e-18
0.0360078 0.0
0.0380082 0.0
0.0400087 0.0
0.0420091 0.0
0.0440095 0.0
0.04601 0.0
0.0480104 1.9709e-18
0.0500108 1.93737e-18
0.0520113 1.14075e-18
0.0540117 5.75448e-19
0.0560121 3.45233e-18
0.0580126 0.0
0.060013 0.0
0.0620134 0.0
0.0640139 0.0
0.0660143 0.0
0.0680147 0.0
0.0700152 2.0821e-18
0.0720156 9.13101e-20
0.074016 8.56617e-19
0.0760165 8.76053e-19
0.0780169 5.65085e-19
0.0800173 3.37883e-18
0.0820178 0.0
0.0840182 0.0
0.0860186 0.0
0.0880191 0.0
0.0900195 0.0
0.0920199 0.0
0.0940204 1.20131e-19
0.0960208 5.91011e-19
0.0980212 9.05666e-20
0.100022 3.11665e-20
0.102022 3.91283e-19
0.104023 0.0
0.106023 0.0
0.108023 0.0
0.110024 0.0
0.112024 0.0
0.114025 0.0
0.116025 5.21419e-19
0.118026 2.34433e-18
0.120026 9.38452e-19
0.122026 1.0005e-18
0.124027 1.13443e-19
0.126027 5.09412e-19
0.128028 0.0
0.130028 0.0
0.132029 0.0
0.134029 0.0
0.136029 0.0
0.13803 0.0
0.14003 3.59396e-19
0.142031 3.42427e-18
0.144031 1.07072e-18
0.146032 6.07253e-19
0.148032 1.54714e-19
0.150033 0.0
0.152033 0.0
0.154033 0.0
0.156034 0.0
0.158034 0.0
0.160035 0.0
0.162035 1.32302e-18
0.164036 9.75101e-19
0.166036 1.7991e-20
0.168036 1.46293e-18
0.170037 3.02165e-18
0.172037 2.38009e-19
0.174038 0.0
0.176038 0.0
0.178039 0.0
0.180039 0.0
0.182039 0.0
0.18404 0.0
0.18604 2.09548e-16
0.188041 7.3557e-17
0.190041 3.58504e-18
0.192042 3.61336e-19
0.194042 3.15167e-18
0.196042 0.0
0.198043 0.0
0.200043 0.0
0.202044 0.0
0.204044 0.0
0.206045 0.0
0.208045 5.15875e-19
0.210046 3.06397e-19
0.212046 2.8579e-19
0.214046 3.84465e-19
0.216047 4.50149e-19
0.218047 3.43253e-19
0.220048 0.0
0.222048 0.0
0.224049 0.0
0.226049 0.0
0.228049 0.0
0.23005 0.0
0.23205 4.69343e-19
0.234051 2.09104e-18
0.236051 6.05199e-19
0.238052 1.46481e-18
0.240052 1.8779e-19
0.242052 0.0
0.244053 0.0
0.246053 0.0
0.248054 0.0
0.250054 0.0
0.252055 0.0
0.254055 3.09701e-19
0.256055 8.34603e-19
0.258056 8.8497e-20
0.260056 1.47022e-18
0.262057 1.61437e-19
0.264057 1.11158e-18
0.266058 0.0
0.268058 0.0
0.270059 0.0
0.272059 0.0
0.274059 0.0
0.27606 0.0
0.27806 2.05712e-19
0.280061 2.39391e-19
0.282061 3.08084e-19
0.284062 1.25956e-18
0.286062 8.86589e-19
0.288062 1.99002e-18
0.290063 0.0
0.292063 0.0
0.294064 0.0
0.296064 0.0
0.298065 0.0
0.300065 0.0
0.302065 9.0075e-19
0.304066 9.1031e-19
0.306066 1.01063e-19
0.308067 9.42013e-18
0.310067 4.74809e-19
0.312068 0.0
0.314068 0.0
0.316068 0.0
0.318069 0.0
0.320069 0.0
0.32207 0.0
0.32407 1.2848e-19
0.326071 1.49963e-19
0.328071 9.72251e-20
0.330072 2.13359e-19
0.332072 8.45016e-19
0.334072 1.33684e-19
0.336073 0.0
0.338073 0.0
0.340074 0.0
0.342074 0.0
0.344075 0.0
0.346075 0.0
0.348075 1.96411e-19
0.350076 3.51081e-19
0.352076 3.82698e-19
0.354077 7.73152e-20
0.356077 2.24739e-19
0.358078 0.0
0.360078 0.0
0.362078 0.0
0.364079 0.0
0.366079 0.0
0.36808 0.0
0.37008 9.78578e-18
0.372081 2.34055e-18
0.374081 1.39459e-17
0.376082 3.10619e-18
0.378082 1.00799e-18
0.380082 3.24704e-18
0.382083 0.0
0.384083 0.0
0.386084 0.0
0.388084 0.0
0.390085 0.0
0.392085 0.0
0.394085 6.47978e-21
0.396086 7.95888e-19
0.398086 1.39508e-18
0.400087 6.31182e-19
0.402087 2.99656e-19
0.404088 0.0
0.406088 0.0
0.408088 0.0
0.410089 0.0
0.412089 0.0
0.41409 0.0
0.41609 2.80275e-19
0.418091 6.53767e-20
0.420091 1.69102e-19
0.422091 2.58816e-19
0.424092 5.13737e-19
0.426092 2.77958e-18
0.428093 0.0
0.430093 0.0
0.432094 0.0
0.434094 0.0
0.436095 0.0
0.438095 0.0
0.440095 2.83695e-19
0.442096 2.79793e-20
0.444096 2.99001e-19
0.446097 3.25651e-19
0.448097 1.42146e-19
0.450098 0.0
0.452098 0.0
0.454098 0.0
0.456099 0.0
0.458099 0.0
0.4601 0.0
0.4621 2.1619e-19
0.464101 2.80654e-19
0.466101 7.78064e-19
0.468101 1.09457e-19
0.470102 1.62893e-20
0.472102 3.90574e-19
0.474103 0.0
0.476103 0.0
0.478104 0.0
0.480104 0.0
0.482104 0.0
0.484105 0.0
0.486105 2.31012e-19
0.488106 4.28206e-19
0.490106 3.36162e-19
0.492107 2.19767e-18
0.494107 8.2511e-18
0.496108 0.0
0.498108 0.0
0.500108 0.0
0.502109 0.0
0.504109 0.0
0.50611 0.0
0.50811 4.47481e-19
0.510111 1.7958e-19
0.512111 6.82303e-20
0.514111 3.40608e-20
0.516112 9.30368e-19
0.518112 7.0297e-20
0.520113 0.0
0.522113 0.0
0.524114 0.0
0.526114 0.0
0.528114 0.0
0.530115 0.0
0.532115 2.15167e-19
0.534116 4.79587e-19
0.536116 6.08083e-20
0.538117 2.20489e-21
0.540117 1.62127e-19
0.542117 5.77315e-20
0.544118 0.0
0.546118 0.0
0.548119 0.0
0.550119 0.0
0.55212 0.0
0.55412 0.0
0.556121 1.27619e-18
0.558121 8.21489e-19
0.560121 2.08547e-19
0.562122 4.4305e-18
0.564122 3.43111e-20
0.566123 0.0
0.568123 0.0
0.570124 1.15934e-20
0.572124 1.31863e-20
0.574124 1.2139e-20
0.576125 1.13217e-20
0.578125 1.08686e-19
0.580126 1.52164e-18
0.582126 2.51992e-19
0.584127 7.32696e-19
0.586127 1.95267e-19
0.588127 2.26103e-19
0.590128 7.78608e-21
0.592128 2.4588e-20
0.594129 3.16714e-21
0.596129 2.24044e-20
0.59813 2.85372e-20
0.60013 3.74053e-21
0.60213 6.65447e-19
0.604131 5.61601e-19
0.606131 9.61425e-20
0.608132 2.60527e-19
0.610132 9.87551e-19
0.612133 4.8259e-21
0.614133 4.07582e-20
0.616134 2.34633e-19
0.618134 2.34307e-19
0.620134 1.14182e-19
0.622135 1.01893e-19
0.624135 8.94357e-20
0.626136 2.7159e-19
0.628136 1.07643e-18
0.630137 1.03574e-18
0.632137 9.80895e-20
0.634137 6.22563e-19
0.636138 9.35849e-20
0.638138 5.24735e-20
0.640139 1.35354e-19
0.642139 8.2819e-20
0.64414 7.71195e-20
0.64614 2.36354e-20
0.64814 5.76608e-19
0.650141 3.28743e-19
0.652141 8.46251e-19
0.654142 1.66835e-18
0.656142 1.60713e-18
0.658143 3.24598e-20
0.660143 1.4497e-19
0.662144 1.20161e-20
0.664144 5.2068e-20
0.666144 9.25596e-20
0.668145 1.99287e-19
0.670145 4.67129e-19
0.672146 7.90111e-18
0.674146 3.39688e-17
0.676147 5.4845e-19
0.678147 4.26182e-19
0.680147 2.00596e-18
0.682148 1.34714e-19
0.684148 3.42618e-19
0.686149 3.33699e-19
0.688149 0.0
0.69015 5.30173e-20
0.69215 7.35591e-20
0.69415 1.01537e-19
0.696151 2.22582e-19
0.698151 4.96747e-19
0.700152 2.10763e-18
0.702152 1.68876e-18
0.704153 5.73799e-20
0.706153 1.01136e-19
0.708153 0.0
0.710154 3.52144e-19
0.712154 6.19322e-20
0.714155 1.55817e-19
0.716155 7.19835e-19
0.718156 3.40841e-19
0.720156 5.52832e-19
0.722157 3.15683e-19
0.724157 1.19563e-19
0.726157 6.95402e-19
0.728158 5.35195e-20
0.730158 1.51777e-19
0.732159 5.18637e-20
0.734159 4.12361e-20
0.73616 1.81453e-20
0.73816 5.10175e-20
0.74016 5.34925e-19
0.742161 1.64672e-18
0.744161 9.67633e-19
0.746162 4.54746e-18
0.748162 3.66394e-18
0.750163 7.56713e-20
0.752163 2.49019e-19
0.754163 5.35071e-20
0.756164 0.0
0.758164 0.0
0.760165 2.23859e-19
0.762165 5.99993e-19
0.764166 6.08547e-19
0.766166 1.92062e-18
0.768166 1.06611e-18
0.770167 1.02738e-18
0.772167 2.81888e-19
0.774168 5.27499e-19
0.776168 3.36172e-19
0.778169 6.71459e-20
0.780169 5.16889e-20
0.78217 0.0
0.78417 2.70106e-19
0.78617 2.07557e-18
0.788171 1.49848e-17
0.790171 1.08027e-18
0.792172 1.12024e-18
0.794172 3.76252e-19
0.796173 1.98144e-18
0.798173 0.0
0.800173 4.77369e-18
0.802174 2.08097e-20
0.804174 1.63864e-20
0.806175 0.0
0.808175 1.80553e-20
0.810176 1.16329e-19
0.812176 1.22065e-18
0.814176 8.13826e-19
0.816177 1.04053e-18
0.818177 1.88634e-18
0.820178 1.75171e-19
0.822178 1.31017e-19
0.824179 0.0
0.826179 1.18884e-19
0.828179 9.68489e-20
0.83018 0.0
0.83218 1.945e-19
0.834181 1.296e-18
0.836181 1.49314e-18
0.838182 1.32677e-19
0.840182 6.65736e-21
0.842183 2.57751e-18
0.844183 8.39791e-20
0.846183 6.98468e-20
0.848184 6.99332e-20
0.850184 0.0
0.852185 6.97089e-20
0.854185 0.0
0.856186 1.84358e-19
0.858186 1.15705e-17
0.860186 1.30299e-17
0.862187 1.24541e-18
0.864187 1.14124e-18
0.866188 7.50868e-20
0.868188 0.0
0.870189 5.97321e-20
0.872189 0.0
0.874189 4.89851e-20
0.87619 0.0
0.87819 5.50988e-19
0.880191 6.34747e-19
0.882191 2.88107e-19
0.884192 5.98824e-18
0.886192 1.17006e-18
0.888192 1.64849e-19
0.890193 3.38004e-19
0.892193 0.0
0.894194 2.09163e-19
0.896194 0.0
0.898195 5.61847e-20
0.900195 0.0
0.902196 4.34692e-19
0.904196 1.16943e-18
0.906196 6.85301e-19
0.908197 1.15964e-18
0.910197 2.38256e-19
0.912198 1.47373e-19
0.914198 0.0
0.916199 1.608e-19
0.918199 0.0
0.920199 9.10807e-21
0.9222 0.0
0.9242 1.62201e-18
0.926201 4.34164e-19
0.928201 8.55126e-19
0.930202 3.11198e-18
0.932202 1.70602e-18
0.934202 1.57881e-18
0.936203 0.0
0.938203 2.85016e-19
0.940204 1.09573e-19
0.942204 0.0
0.944205 1.06819e-19
0.946205 0.0
0.948205 1.26688e-19
0.950206 1.85072e-18
0.952206 2.78461e-19
0.954207 9.2714e-19
0.956207 3.55317e-18
0.958208 0.0
0.960208 1.48793e-18
0.962209 0.0
0.964209 5.27798e-20
0.966209 7.34426e-20
0.96821 0.0
0.97021 1.26705e-19
0.972211 8.96306e-19
0.974211 4.19961e-18
0.976212 6.54473e-19
0.978212 4.1129e-19
0.980212 5.43877e-19
0.982213 6.8133e-19
0.984213 1.29587e-18
0.986214 5.41222e-20
0.988214 2.78132e-19
0.990215 3.40889e-19
0.992215 7.78332e-19
0.994215 1.25985e-18
0.996216 2.04673e-18
0.998216 4.55226e-19
1.00022 1.29026e-18
1.00222 1.5005e-19
1.00422 5.11913e-19
1.00622 3.49187e-19
1.00822 1.51291e-19
1.01022 1.44634e-19
1.01222 5.69595e-19
1.01422 7.76794e-19
1.01622 1.25698e-18
1.01822 2.53455e-19
1.02022 2.1113e-18
1.02222 1.2513e-18
1.02422 4.47092e-19
1.02622 1.01112e-17
1.02822 3.13898e-20
1.03022 1.40402e-19
1.03222 4.79209e-19
1.03422 7.61042e-20
1.03622 1.88449e-19
1.03823 2.89774e-19
1.04023 1.76971e-18
1.04223 3.64651e-17
1.04423 1.38351e-16
1.04623 2.55103e-17
1.04823 2.65298e-17
1.05023 6.62673e-18
1.05223 1.913e-18
1.05423 8.37895e-19
1.05623 7.63191e-19
1.05823 1.07352e-18
1.06023 5.45184e-20
1.06223 6.16936e-19
1.06423 2.69522e-18
1.06623 3.90354e-19
1.06823 1.10609e-18
1.07023 1.98269e-17
1.07223 6.22376e-19
1.07423 1.03747e-18
1.07623 3.48918e-19
1.07823 2.41079e-19
1.08023 9.82466e-20
1.08223 7.46364e-19
1.08423 2.24524e-19
1.08624 1.58843e-18
1.08824 2.24059e-18
1.09024 6.25926e-19
1.09224 5.43351e-18
1.09424 5.09492e-18
1.09624 9.72561e-19
1.09824 8.14978e-20
1.10024 1.05113e-19
1.10224 3.40318e-18
1.10424 1.29572e-19
1.10624 5.97098e-20
1.10824 2.32946e-18
1.11024 1.27412e-18
1.11224 2.72858e-18
1.11424 1.77299e-19
1.11624 3.83506e-19
1.11824 2.62165e-19
1.12024 1.01747e-19
1.12224 9.78961e-20
1.12424 1.86936e-19
1.12624 1.12701e-18
1.12824 3.35424e-19
1.13024 4.86045e-19
1.13225 5.77409e-20
1.13425 1.09823e-18
1.13625 3.88783e+07
1.13825 1.32678e+09
1.14025 4.55453e+07
1.14225 4.2176e+07
1.14425 2.10908e+07
1.14625 2.27151e+07
1.14825 4.35116e+07
1.15025 2.35314e+07
1.15225 2.80339e+07
1.15425 2.80871e+07
1.15625 2.19173e+07
1.15825 1.54544e+07
1.16025 2.51497e+07
1.16225 1.83635e+07
1.16425 2.07505e+07
1.16625 2.26092e+07
1.16825 1.2478e+07
1.17025 3.13442e+07
1.17225 1.85781e+07
1.17425 1.79528e+07
1.17625 1.20322e+07
1.17826 6.52407e+06
1.18026 4.58924e+06
1.18226 7.59741e+06
1.18426 6.54882e+06
1.18626 7.61573e+06
1.18826 1.76578e+07
1.19026 1.64275e+07
1.19226 5.18506e+06
1.19426 7.19133e+06
1.19626 6.72984e+06
1.19826 4.72293e+06
1.20026 1.41562e+07
1.20226 4.4156e+06
1.20426 9.76258e+06
1.20626 1.09004e+07
1.20826 3.84391e+06
1.21026 6.28021e+06
1.21226 1.00445e+07
1.21426 9.00601e+06
1.21626 1.52728e+07
1.21826 8.01105e+06
1.22026 4.68836e+06
1.22226 1.95012e+07
1.22427 3.65763e+06
1.22627 1.23742e+07
1.22827 7.70603e+06
1.23027 6.1748e+06
1.23227 4.41691e+06
1.23427 7.6016e+06
1.23627 3.15084e+06
1.23827 7.9592e+06
1.24027 1.5116e+06
1.24227 1.03579e+07
1.24427 5.03511e+06
1.24627 6.94127e+06
1.24827 5.59232e+06
1.25027 3.79267e+06
1.25227 9.16985e+06
1.25427 6.87848e+06
1.25627 5.1084e+06
1.25827 1.00539e+07
1.26027 3.56232e+06
1.26227 3.71791e+06
1.26427 9.23589e+06
1.26627 4.15082e+06
1.26827 8.68132e+06
1.27028 8.57962e+06
1.27228 6.05325e+06
1.27428 7.04744e+06
1.27628 3.65972e+06
1.27828 2.92223e+06
1.28028 5.4912e+06
1.28228 7.16721e+06
1.28428 4.82972e+06
1.28628 7.78411e+06
1.28828 1.1805e+06
1.29028 5.47401e+06
1.29228 5.84794e+06
1.29428 1.54718e+06
1.29628 6.51524e+06
1.29828 3.71225e+06
1.30028 8.1802e+06
1.30228 1.0461e+06
1.30428 5.61891e+06
1.30628 2.31577e+06
1.30828 6.61359e+06
1.31028 1.5593e+07
1.31228 4.62641e+06
1.31428 5.58994e+06
1.31629 8.75747e+06
1.31829 2.30588e+06
1.32029 261170
1.32229 8.1054e+06
1.32429 4.01093e+06
1.32629 4.50975e+06
1.32829 1.43142e+09
1.33029 5.51332e+06
1.33229 892571
1.33429 7.0019e+06
1.33629 2.33101e+06
1.33829 2.88073e+06
1.34029 3.97584e+06
1.34229 6.59468e+06
1.34429 16736.4
1.34629 2.05181e+06
1.34829 633725
1.35029 5.20726e+06
1.35229 4.79654e+06
1.35429 7.87533e+06
1.35629 4.14615e+06
1.35829 4.1647e+06
1.36029 1.79931e+06
1.3623 3.01074e+06
1.3643 2.042e+06
1.3663 4.45906e+06
1.3683 2.99333e+06
1.3703 1.43649e+06
1.3723 3.92868e+06
1.3743 2.68012e+06
1.3763 2.03988e+06
1.3783 4.34459e+06
1.3803 896573
1.3823 2.63736e+06
1.3843 1.80743e+06
1.3863 5.73262e+06
1.3883 2.28432e+06
1.3903 2.60887e+06
1.3923 855308
1.3943 4.13105e+06
1.3963 8.30479e+06
1.3983 700075
1.4003 3.6542e+06
1.4023 5.98573e+06
1.4043 2.18037e+06
1.4063 7.32256e+06
1.40831 7.90836e+06
1.41031 2.79145e+06
1.41231 7.40214e+06
1.41431 2.4562e+06
1.41631 853840
1.41831 3.27738e+06
1.42031 5.32615e+06
1.42231 5.1865e+06
1.42431 1.27436e+06
1.42631 6.02187e+06
1.42831 2.75145e+06
1.43031 4.99059e+06
1.43231 5.2632e+06
1.43431 2.06839e+06
1.43631 2.76145e+06
1.43831 374985
1.44031 2.25802e+06
1.44231 3.11958e+06
1.44431 3.92945e+06
1.44631 1.99482e+06
1.44831 1.60495e+06
1.45031 2.14135e+06
1.45231 1.42576e+06
1.45432 6.77031e+06
1.45632 3.52412e+06
1.45832 6.43801e+06
1.46032 504686
1.46232 573479
1.46432 18620.4
1.46632 322212
1.46832 544721
1.47032 2.72387e+06
1.47232 1.43068e+06
1.47432 4.30374e+06
1.47632 3.71038e+06
1.47832 418322
1.48032 482348
1.48232 1.51415e+06
1.48432 58333.5
1.48632 865947
1.48832 823292
1.49032 4.52858e+06
1.49232 3.33887e+06
1.49432 1.03324e+06
1.49632 2.36562e+06
1.49832 1.3866e+06
1.50033 1.84612e+06
1.50233 2.90757e+06
1.50433 1.27777e+06
1.50633 1.01254e+06
1.50833 787491
1.51033 881720
1.51233 1.36756e+06
1.51433 2.08234e+06
1.51633 1.27571e+06
1.51833 3.50313e+06
1.52033 1.50205e+06
1.52233 1.31479e+06
1.52433 1.29665e+06
1.52633 770590
1.52833 2.86683e+06
1.53033 3.48718e+06
1.53233 209235
1.53433 890834
1.53633 1.63684e+06
1.53833 1.39668e+06
1.54033 493254
1.54233 3.63643e+06
1.54433 2.00018e+06
1.54634 1.11249e+06
1.54834 1.6627e+06
1.55034 854753
1.55234 676986
1.55434 1.93179e+06
1.55634 716884
1.55834 2.27622e+06
1.56034 3.05667e+06
1.56234 3.33688e+06
1.56434 2.66482e+06
1.56634 89297.6
1.56834 886778
1.57034 1.18705e+06
1.57234 1.40774e+06
1.57434 260294
1.57634 157831
1.57834 364937
1.58034 770318
1.58234 1.3953e+06
1.58434 683275
1.58634 759543
1.58834 3.71095e+06
1.59034 430350
1.59235 281896
1.59435 1.39931e+06
1.59635 1.72209e+06
1.59835 553804
1.60035 810909
1.60235 916633
1.60435 1.32948e+06
1.60635 1.14361e+06
1.60835 2.46434e+06
1.61035 1.64199e+06
1.61235 235407
1.61435 306714
1.61635 2.27402e+06
1.61835 1.91107e+06
1.62035 418207
1.62235 904508
1.62435 1.10403e+06
1.62635 157905
1.62835 663448
1.63035 511560
1.63235 132844
1.63435 3.43957e+06
1.63635 1.87527e+06
1.63836 1.15213e+06
1.64036 1.22036e+06
1.64236 882076
1.64436 823493
1.64636 3.88449e+06
1.64836 1.77183e+06
1.65036 952512
1.65236 1.95813e+06
1.65436 324926
1.65636 2.02592e+06
1.65836 835316
1.66036 176155
1.66236 1.2589e+06
1.66436 1.64707e+06
1.66636 10484.4
1.66836 1.5035e+06
1.67036 762964
1.67236 2.24901e+06
1.67436 1.67309e+06
1.67636 218344
1.67836 1.38366e+06
1.68036 264299
1.68236 1.021e+06
1.68437 786178
1.68637 835336
1.68837 2.60918e+06
1.69037 111017
1.69237 1.5111e+06
1.69437 145404
1.69637 1.01632e+06
1.69837 554224
1.70037 128196
1.70237 589877
1.70437 299376
1.70637 2.52027e+06
1.70837 760085
1.71037 638663
1.71237 800341
1.71437 258400
1.71637 639021
1.71837 1.35673e+06
1.72037 2.64721e+06
1.72237 971956
1.72437 1.34121e+06
1.72637 2.53643e+06
1.72837 304020
1.73038 1.42103e+06
1.73238 1.83791e+06
1.73438 1.78416e+06
1.73638 215440
1.73838 1.82275e+06
1.74038 324759
1.74238 1.20457e+06
1.74438 331823
1.74638 2.98634e+06
1.74838 32811.9
1.75038 1.10391e+06
1.75238 1.60314e+06
1.75438 2.36941e+06
1.75638 352872
1.75838 882670
1.76038 540255
1.76238 1.34725e+06
1.76438 1.72082e+06
1.76638 600197
1.76838 712878
1.77038 1.73464e+06
1.77238 484020
1.77438 1.09263e+06
1.77638 1.66772e+06
1.77839 289499
1.78039 614300
1.78239 409664
1.78439 726855
1.78639 1.27272e+06
1.78839 803608
1.79039 782279
1.79239 695623
1.79439 1.19812e+06
1.79639 117081
1.79839 282985
1.80039 1.92999e+06
1.80239 138869
1.80439 1.58583e+06
1.80639 22248.2
1.80839 667582
1.81039 671641
1.81239 269663
1.81439 406899
1.81639 2.14627e+06
1.81839 640258
1.82039 620576
1.82239 540010
1.8244 796314
1.8264 350712
1.8284 864193
1.8304 1.67998e+06
1.8324 942081
1.8344 765697
1.8364 508797
1.8384 445512
1.8404 243576
1.8424 1.70295e+06
1.8444 650284
1.8464 1.29359e+06
1.8484 666380
1.8504 774019
1.8524 381071
1.8544 740187
1.8564 266225
1.8584 223770
1.8604 292404
1.8624 412178
1.8644 569060
1.8664 1.67358e+06
1.8684 232537
1.87041 581012
1.87241 566308
1.87441 1.05753e+06
1.87641 261570
1.87841 164922
1.88041 1.39395e+06
1.88241 428288
1.88441 756999
1.88641 946885
1.88841 5277.29
1.89041 308023
1.89241 409117
1.89441 622014
1.89641 1.26354e+06
1.89841 17377.6
1.90041 184797
1.90241 1.05952e+06
1.90441 418262
1.90641 1.02076e+06
1.90841 257762
1.91041 1.53857e+06
1.91241 869158
1.91441 66938.3
1.91642 251414
1.91842 38076.1
1.92042 1.09466e+06
1.92242 209697
1.92442 612889
1.92642 1.66167e+06
1.92842 246093
1.93042 358805
1.93242 1.33485e+06
1.93442 2.32809e-19
1.93642 161800
1.93842 374601
1.94042 1.02066e+06
1.94242 2.68314e+06
1.94442 886605
1.94642 873815
1.94842 1.70803e+06
1.95042 1.13483e+06
1.95242 351726
1.95442 1.21194e+06
1.95642 577041
1.95842 1.05097e+06
1.96042 187860
1.96243 3.59333e-19
1.96443 148635
1.96643 150799
1.96843 2.82947e-18
1.97043 284550
1.97243 271341
1.97443 0.0134544
1.97643 845462
1.97843 851003
1.98043 407387
1.98243 902885
1.98443 800417
1.98643 174472
1.98843 1.46362e+06
1.99043 155323
1.99243 4.95047e+08
1.99443 572419
1.99643 541392
1.99843 0.0100317
2.00043 1.53676e+06
2.00243 448027
2.00443 0.0212906
2.00643 1.19457e+06
2.00844 870968
2.01044 0.0109779
2.01244 104462
2.01444 805717
2.01644 262286
2.01844 725378
2.02044 335311
2.02244 481432
2.02444 899534
2.02644 270767
2.02844 120882
2.03044 113685
2.03244 538919
2.03444 2.01103e+06
2.03644 0.0131787
2.03844 208524
2.04044 1.04123e+06
2.04244 25025.1
2.04444 70974.3
2.04644 531566
2.04844 332906
2.05044 340082
2.05244 564517
2.05445 651693
2.05645 0.0316847
2.05845 695617
2.06045 887383
2.06245 249528
2.06445 131208
2.06645 342296
2.06845 933709
2.07045 0.0134885
2.07245 1.2105e+06
2.07445 674793
2.07645 496792
2.07845 182026
2.08045 275134
2.08245 216133
2.08445 0.0180358
2.08645 855473
2.08845 5.75174e+09
2.09045 68255.8
2.09245 6966.3
2.09445 1.32647e+06
2.09645 207080
2.09845 0.00580628
2.10046 301258
2.10246 405257
2.10446 151072
2.10646 0.0160022
2.10846 338847
2.11046 548523
2.11246 172886
2.11446 847440
2.11646 284280
2.11846 538765
2.12046 82132.4
2.12246 520310
2.12446 529288
2.12646 263947
2.12846 0.0137943
2.13046 674687
2.13246 1.82823e+06
2.13446 139396
2.13646 0.019705
2.13846 179653
2.14046 195123
2.14246 302927
2.14446 0.011292
2.14647 265301
2.14847 873662
2.15047 258169
2.15247 146494
2.15447 142899
2.15647 854871
2.15847 90704.8
2.16047 89606.8
2.16247 221814
2.16447 455078
2.16647 76289.5
2.16847 0.0100255
2.17047 435909
2.17247 707985
2.17447 27931.1
2.17647 0.0348821
2.17847 533083
2.18047 417764
2.18247 117904
2.18447 0.0187133
2.18647 332404
2.18847 748345
2.19047 114.095
2.19248 0.0211687
2.19448 339193
2.19648 328670
2.19848 186065
2.20048 5689.89
2.20248 249216
2.20448 581727
2.20648 1.26103e+06
2.20848 153584
2.21048 0.0291322
2.21248 94986.9
2.21448 323487
2.21648 56369.8
2.21848 0.0145261
2.22048 390976
2.22248 912101
2.22448 66551.9
2.22648 99483.1
2.22848 245080
2.23048 175181
2.23248 470882
2.23448 277.027
2.23648 0.0127589
2.23849 593478
2.24049 698760
2.24249 80145
2.24449 355811
2.24649 381054
2.24849 357367
2.25049 153040
2.25249 16623.5
2.25449 47931.2
2.25649 241914
2.25849 356730
2.26049 741023
2.26249 121627
2.26449 0.00712671
2.26649 724306
2.26849 288471
2.27049 4.63019e+06
2.27249 1.47876e+06
2.27449 1.06174e+06
2.27649 4.97524e+07
2.27849 2.55546e+06
2.28049 1.43457e+06
2.28249 1.97577e+06
2.2845 1.16189e+06
2.2865 1.55181e+06
2.2885 2.03362e+06
2.2905 2.3721e+06
2.2925 877764
2.2945 8.36643e+07
2.2965 929448
2.2985 1.36971e+06
2.3005 1.67298e+06
2.3025 428219
2.3045 1.063e+06
2.3065 643467
2.3085 2.70805e+06
2.3105 1.58933e+06
2.3125 1.13218e+06
2.3145 1.24943e+06
2.3165 1.14122e+06
2.3185 819771
2.3205 732121
2.3225 1.85943e+06
2.3245 928875
2.3265 1.70431e+06
2.3285 974353
2.33051 998676
2.33251 1.54321e+06
2.33451 499261
2.33651 1.31029e+06
2.33851 1.32716e+06
2.34051 1.24433e+06
2.34251 1.01555e+06
2.34451 1.3421e+06
2.34651 1.27438e+06
2.34851 958381
2.35051 1.55834e+06
2.35251 828855
2.35451 1.35513e+06
2.35651 1.17001e+06
2.35851 613246
2.36051 733707
2.36251 375546
2.36451 1.21386e+06
2.36651 729439
2.36851 1.06091e+06
2.37051 1.54574e+06
2.37251 548875
2.37451 767561
2.37652 1.04731e+06
2.37852 1.44233e+08
2.38052 1.59386e+08
2.38252 917159
2.38452 1.03966e+06
2.38652 445017
2.38852 363019
2.39052 1.79809e+06
2.39252 838162
2.39452 778689
2.39652 572343
2.39852 815361
2.40052 1.19663e+10
2.40252 918529
2.40452 752213
2.40652 906069
2.40852 1.01887e+06
2.41052 587513
2.41252 689259
2.41452 1.27868e+06
2.41652 2.37091e+10
2.41852 1.53465e+06
2.42052 1.00332e+06
2.42253 849794
2.42453 477666
2.42653 1.14653e+06
2.42853 1.43308e+06
2.43053 661529
2.43253 879485
2.43453 720158
2.43653 817071
2.43853 1.45543e+06
2.44053 721560
2.44253 889257
2.44453 1.24886e+06
2.44653 913630
2.44853 923559
2.45053 339229
2.45253 1.29862e+06
2.45453 319402
2.45653 167359
2.45853 1.27326e+06
2.46053 703000
2.46253 1.09192e+06
2.46453 1.06232e+06
2.46653 1.46716e+06
2.46853 1.88721e+06
2.47054 1.56021e+06
2.47254 879831
2.47454 486459
2.47654 707685
2.47854 1.80093e+06
2.48054 1.14086e+06
2.48254 614800
2.48454 716244
2.48654 493579
2.48854 493987
2.49054 804886
2.49254 1.22524e+06
2.49454 928248
2.49654 592543
2.49854 896782
2.50054 855356
2.50254 228395
2.50454 310551
2.50654 847536
2.50854 192643
2.51054 806491
2.51254 1.42328e+06
2.51454 665175
2.51655 789321
2.51855 1.03451e+06
2.52055 2.18099e+06
2.52255 419006
2.52455 1.0196e+06
2.52655 257890
2.52855 1.1233e+06
2.53055 878500
2.53255 936820
2.53455 1.75703e+06
2.53655 992207
2.53855 542639
2.54055 387569
2.54255 1.28953e+06
2.54455 1.0991e+06
2.54655 830477
2.54855 932645
2.55055 801778
2.55255 817211
2.55455 855097
2.55655 803574
2.55855 998350
2.56055 1.35315e+06
2.56256 1.10651e+06
2.56456 673528
2.56656 1.42903e+06
2.56856 1.78144e+06
2.57056 1.513e+06
2.57256 1.53716e+06
2.57456 232439
2.57656 1.61115e+06
2.57856 751401
2.58056 947380
2.58256 697764
2.58456 1.69106e+06
2.58656 939410
2.58856 900710
2.59056 1.62597e+06
2.59256 1.21712e+06
2.59456 1.05627e+06
2.59656 814575
2.59856 834904
2.60056 419059
2.60256 223060
2.60456 815557
2.60656 1.07697e+06
2.60857 923928
2.61057 929985
2.61257 767969
2.61457 919500
2.61657 1.72994e+06
2.61857 1.01321e+06
2.62057 1.41234e+06
2.62257 999701
2.62457 863656
2.62657 1.49024e+06
2.62857 1.07746e+06
2.63057 653769
2.63257 733731
2.63457 3.82306e+07
2.63657 783098
2.63857 582103
2.64057 496166
2.64257 764168
2.64457 664803
2.64657 315523
2.64857 684090
2.65057 1.12662e+06
2.65257 1.88667e+06
2.65458 557509
2.65658 2.34584e+08
2.65858 719105
2.66058 1.29653e+06
2.66258 1.45509e+06
2.66458 782480
2.66658 814193
2.66858 556578
2.67058 494008
2.67258 525119
2.67458 1.211e+06
2.67658 1.15674e+06
2.67858 791934
2.68058 1.14647e+06
2.68258 673398
2.68458 835359
2.68658 1.27772e+06
2.68858 773971
2.69058 814039
2.69258 775129
2.69458 2.33343e+06
2.69658 1.51262e+08
2.69858 917497
2.70059 867664
2.70259 1.2001e+06
2.70459 552966
2.70659 344847
2.70859 427017
2.71059 441804
2.71259 1.49899e+06
2.71459 423277
2.71659 1.34676e+06
2.71859 604536
2.72059 622214
2.72259 2.01601e+06
2.72459 1.00702e+06
2.72659 1.24367e+06
2.72859 1.71203e+06
2.73059 210088
2.73259 676452
2.73459 542333
2.73659 1.69034e+06
2.73859 513964
2.74059 1.49732e+06
2.74259 1.65612e+06
2.74459 647057
2.7466 666732
2.7486 870969
2.7506 1.07182e+06
2.7526 298865
2.7546 1.26302e+06
2.7566 937032
2.7586 1.11552e+06
2.7606 1.3726e+06
2.7626 510984
2.7646 379539
2.7666 659909
2.7686 776635
2.7706 1.4784e+06
2.7726 1.02293e+06
2.7746 867981
2.7766 818040
2.7786 1.6537e+06
2.7806 810236
2.7826 389168
2.7846 325092
2.7866 1.41982e+06
2.7886 880421
2.7906 952291
2.79261 759700
2.79461 474581
2.79661 1.61653e+06
2.79861 431229
2.80061 921304
2.80261 1.3741e+06
2.80461 241561
2.80661 544603
2.80861 1.31562e+06
2.81061 1.01577e+06
2.81261 782173
2.81461 1.45759e+06
2.81661 443104
2.81861 2.79436e+06
2.82061 923494
2.82261 346744
2.82461 597693
2.82661 472943
2.82861 438992
2.83061 1.43766e+06
2.83261 2.0192e+06
2.83461 534244
2.83661 549810
2.83862 424003
2.84062 474268
2.84262 658060
2.84462 1.67698e+06
2.84662 909519
2.84862 778210
2.85062 702954
2.85262 412183
2.85462 548188
2.85662 1.50634e+06
2.85712 0.0