File: SRC_files/py_figures/XRD_data/SRC001-020_no_adj.txt
'y-axis saved as y
'x 11bmb_8032SRC001-020.xye SigmaYobs Ycalc Diff
0.5 879.262 39.0921 0 0
0.533947 1027.87 42.1368 0 0
0.567894 1092.34 43.6079 0 0
0.601841 934.699 40.4311 0 0
0.635787 795.698 37.0536 0 0
0.669734 739.192 35.9088 0 0
0.703681 659.218 34.0687 0 0
0.737628 642.552 33.281 0 0
0.771575 582.324 31.8831 0 0
0.805522 532.306 30.5717 0 0
0.839469 582.076 31.5283 0 0
0.873416 531.92 30.4009 0 0
0.907362 524.899 30.5074 0 0
0.941309 501.023 29.2782 0 0
0.975256 495.55 29.4215 0 0
1.009203 464.905 28.8066 0 0
1.04315 432.268 27.2848 0 0
1.077097 418.2551 27.0269 0 0
1.111044 437.487 27.822 0 0
1.144991 348.096 24.4451 0 0
1.178937 376.951 25.621 0 0
1.212884 368.939 25.4954 0 0
1.246831 326.47 23.709 0 0
1.280778 299.724 22.8466 0 0
1.314725 330.931 24.1258 0 0
1.348672 306.767 23.0704 0 0
1.382619 330.153 23.9003 0 0
1.416566 308.641 23.3188 0 0
1.450513 307.434 23.1693 0 0
1.484459 309.853 23.1568 0 0
1.518406 313.722 23.4207 0 0
1.552353 311.681 23.4104 0 0
1.5863 273.931 21.713 0 0
1.620247 318.604 23.5802 0 0
1.654194 297.798 22.99291 0 0
1.688141 290.345 22.2474 0 0
1.722088 285.313 22.2913 0 0
1.756034 329.367 24.101 0 0
1.789981 290.219 22.201 0 0
1.823928 309.402 23.1946 0 0
1.857875 272.275 21.9665 0 0
1.891822 247.953 20.55218 0 0
1.925769 260.972 21.3337 0 0
1.959716 257.031 21.3384 0 0
1.993663 267.085 21.3913 0 0
2.027609 242.678 18.6863 0 0
2.061556 252.394 19.1981 0 0
2.095503 271.752 19.6521 0 0
2.12945 230.548 18.2012 0 0
2.163397 207.309 17.3735 0 0
2.197344 221.288 17.8558 0 0
2.231291 235.145 18.3364 0 0
2.265238 257.643 19.4205 0 0
2.299184 211.276 17.4024 0 0
2.333131 224.549 17.931 0 0
2.367078 213.62 17.5657 0 0
2.401025 177.842 16.0086 0 0
2.434972 202.635 16.9941 0 0
2.468919 209.786 17.3539 0 0
2.502866 207.282 17.2825 0 0
2.536813 229.134 17.966 0 0
2.570759 221.688 17.9179 0 0
2.604706 177.91 16.1685 0 0
2.638653 217.614 17.5775 0 0
2.6726 212.417 17.46 0 0
2.706547 198.514 17.1226 0 0
2.740494 197.752 16.896 0 0
2.774441 216.522 17.6881 0 0
2.808388 205.291 17.3079 0 0
2.842334 197.233 16.773 0 0
2.876281 184.301 16.2612 0 0
2.910228 208.047 17.4801 0 0
2.944175 215.136 17.3897 0 0
2.978122 211.11 17.5067 0 0
3.012069 210.068 17.4722 0 0
3.046016 228.128 17.983 0 0
3.079963 197.854 16.7881 0 0
3.113909 198.65 17.017 0 0
3.147856 231.745 18.2493 0 0
3.181803 237.505 18.5713 0 0
3.21575 528.164 27.7728 0 0
3.249697 225.004 18.13 0 0
3.283644 205.878 17.1192 0 0
3.317591 212.358 17.5233 0 0
3.351538 210.173 17.5035 0 0
3.385484 206.361 17.0958 0 0
3.419431 202.558 17.1359 222.572 -20.0144
3.453378 223.462 18.0553 224.883 -1.42136
3.487325 217.869 17.6155 226.105 -8.23547
3.521272 206.403 17.1318 226.478 -20.0755
3.555219 206.811 17.3135 226.221 -19.4102
3.589166 229.654 18.0082 225.527 4.12726
3.623113 225.342 18.0868 224.569 0.773083
3.657059 241.605 18.8493 223.498 18.1065
3.691006 234.708 18.2574 222.449 12.2584
3.724953 265.558 19.5127 221.537 44.0208
3.7589 236.76 18.6312 220.862 15.8983
3.792847 216.515 17.5362 220.508 -3.99309
3.826794 254.796 19.0939 220.547 34.249
3.860741 191.607 16.6899 221.035 -29.4284
3.894688 232.973 18.1464 222.021 10.9518
3.928634 254.661 19.0945 223.539 31.1216
3.962581 250.318 19.0033 225.616 24.702
3.996528 249.377 18.763 228.268 21.1095
4.030475 298.792 18.5332 231.504 67.2882
4.064422 247.72 17.0375 235.327 12.3927
4.098369 256.284 17.2356 239.732 16.5526
4.132316 242.155 16.753 244.707 -2.55225
4.166263 261.551 17.4911 262.133 -0.582165
4.200209 316.501 19.2508 273.028 43.473
4.234156 287.434 18.1934 288.103 -0.669115
4.268103 337.463 19.7823 312.25 25.2131
4.30205 319.945 19.3701 362.512 -42.5677
4.335997 412.146 21.77626 534.759 -122.613
4.369944 1596.53 43.0604 2816.47 -1219.94
4.403891 950.557 33.4924 1395.74 -445.179
4.437838 376.929 20.6804 491.052 -114.123
4.471784 376.186 21.0219 390.305 -14.1193
4.505731 341.995 20.1342 369.078 -27.0826
4.539678 297.236 18.3414 365.391 -68.1545
4.573625 291.435 18.334 369.102 -77.66688
4.607572 312.896 19.1506 376.804 -63.9085
4.641519 317.473 19.0198 379.688 -62.2149
4.675466 347.318 20.0193 398.745 -51.4269
4.709413 401.881 21.7007 441.724 -39.8436
4.743359 650.855 27.0837 685.23 -34.3752
4.777306 2011.99 48.1446 1150.62 861.373
4.811253 956.736 33.5686 499.866 456.871
4.8452 855.437 31.3117 467.124 388.313
4.879147 802.604 30.5058 475.155 327.449
4.913094 814.931 30.9744 510.152 304.779
4.947041 890.906 32.1179 677.842 213.064
4.980988 1710.99 44.511 3670.67 -1959.67
5.014934 851.559 31.6622 666.413 185.146
5.048881 693.542 28.4709 534.479 159.0629
5.082828 649.294 27.3477 514.641 134.653
5.116775 596.298 26.4111 512.353 83.945
5.150722 592.934 26.3906 515.04 77.8945
5.184669 590.31 26.0764 519.489 70.8217
5.218616 610.147 26.5937 524.5726 85.5744
5.252563 556.129 25.6166 529.811 26.3178
5.286509 576.799 25.6962 534.819 41.98
5.320456 554.219 25.468 540.969 13.2496
5.354403 555.991 25.6941 547.057 8.93421
5.38835 549.861 24.9597 553.352 -3.49137
5.422297 599.77 26.4851 560.463 39.3064
5.456244 591.891 26.4318 569.983 21.9084
5.490191 664.606 27.5212 587.208 77.3983
5.524138 731.802 29.276 639.319 92.483
5.558084 1282.24 38.9125 1119.63 162.61
5.592031 760.755 29.3884 1093.75 -332.999
5.625978 628.738 26.9876 643.873 -15.1351
5.659925 581.418 26.2753 597.253 -15.8353
5.693872 583.494 25.7224 584.469 -0.975273
5.727819 554.408 25.2948 579.254 -24.8454
5.761766 552.637 25.5225 576.438 -23.8011
5.795713 518.489 24.2996 574.466 -55.9774
5.829659 501.267 24.1159 572.745 -71.4783
5.863606 542.594 25.3218 571.013 -28.4183
5.897553 550.014 25.3341 567.165 -17.1509
5.9315 539.369 24.962 565.453 -26.0836
5.965447 488.816 23.9475 563.419 -74.6024
5.999394 514.172 24.5359 561.075 -46.9031
6.033341 510.812 22.2683 558.436 -47.6241
6.067288 527.087 22.835 555.514 -28.4266
6.101234 568.586 23.8521 552.323 16.263
6.135181 533.539 22.8335 550.624 -17.0844
6.169128 526.809 22.8688 547.345 -20.5358
6.203075 540.704 23.1625 544.001 -3.29699
6.237022 530.942 22.6543 540.704 -9.76203
6.270969 560.977 23.4539 537.651 23.3256
6.304916 498.293 22.1513 535.237 -36.9445
6.338863 544.771 22.8079 534.376 10.3952
6.372809 531.747 22.757 537.648 -5.9014
6.406756 577.762 24.1389 555.011 22.7503
6.440703 638.187 24.8617 656.048 -17.8609
6.47465 1152.81 33.5848 2108.86 -956.044
6.508597 748.306 27.2826 670.951 77.3557
6.542544 534.914 22.6939 537.726 -2.81133
6.576491 514.103 22.4887 507.385 6.71834
6.610438 514.861 22.5827 493.131 21.73
6.644384 476.196 21.4008 483.53 -7.33437
6.678331 484.738 21.5726 475.744 8.9945
6.712278 472.233 21.6394 468.806 3.42734
6.746225 485.615 21.6444 462.32 23.2956
6.780172 485.84 21.7465 456.101 29.7387
6.814119 466.562 21.283 450.059 16.503
6.848066 436.745 20.6542 442.677 -5.93225
6.882013 450.508 20.968 437.099 13.4085
6.915959 455.696 21.1949 431.559 24.1376
6.949906 432.478 20.6945 426.063 6.41491
6.983853 433.5 20.5857 420.621 12.8789
7.0178 443.313 20.9547 415.239 28.0741
7.051747 442.081 21.0125 409.926 32.1556
7.085694 433.119 20.5585 404.686 28.4328
7.119641 431.779 20.6687 399.527 32.2512
7.153588 407.797 20.1634 395.148 12.6485
7.187534 414.461 19.9748 390.303 24.158
7.221481 419.289 20.2447 385.597 33.6917
7.255428 394.295 19.6905 381.057 13.2377
7.289375 394.336 19.4798 376.724 17.6125
7.323322 402.875 19.8379 372.665 30.2102
7.357269 414.79 20.2949 369.011 45.7793
7.391216 1368.62 36.357 366.042 1002.58
7.425163 405.734 19.9889 364.455 41.2791
7.459109 388.571 19.7391 366.428 22.1428
7.493056 369.063 18.852 381.866 -12.8022
7.527003 420.754 20.2203 507.842 -87.0883
7.56095 460.789 21.252 708.205 -247.416
7.594897 424.442 20.148 386.927 37.5146
7.628844 388.476 19.4803 351.363 37.1133
7.662791 363.154 18.913 339.477 23.6775
7.696738 338.905 18.0321 332.791 6.11396
7.730684 341.925 18.2675 327.927 13.9981
7.764631 343.98 18.4514 323.906 20.0735
7.798578 344.272 18.3698 320.36 23.9122
7.832525 303.103 17.1766 317.125 -14.0227
7.866472 331.041 18.0243 314.119 16.9216
7.900419 312.633 17.5743 311.295 1.33718
7.934366 308.497 17.3155 309.817 -1.32069
7.968313 317.72 17.5796 306.868 10.8523
8.002259 318.525 16.8035 304.809 13.7156
8.036206 303.12 16.228 302.926 0.194259
8.070153 308.152 16.4814 301.253 6.89945
8.1041 330.814 17.1834 299.847 30.9666
8.138047 309.388 16.2795 298.811 10.5778
8.171994 320.668 16.6999 298.337 22.3318
8.205941 311.248 16.5368 298.825 12.42281
8.239888 306.404 16.0939 301.21 5.19432
8.273834 302.27 16.2356 308.634 -6.36372
8.307781 365.884 17.9166 351.312 14.5716
8.341728 617.091 22.889 458.435 158.656
8.375675 1358.52 34.3572 1126.83 231.697
8.409622 573.593 22.5716 588.395 -14.8025
8.443569 500.081 20.649 387.666 112.415
8.477516 344.135 17.1434 362.316 -18.1813
8.511463 335.882 17.2071 366.285 -30.4024
8.545409 334.923 16.9243 385.83 -50.907
8.579356 381.379 18.1902 424.554 -43.1742
8.613303 422.978 19.2913 499.187 -76.2091
8.64725 458.954 19.9015 661.236 -202.281
8.681197 737.013 25.1555 1125.84 -388.823
8.715144 1940.1 41.3433 3119.81 -1179.71
8.749091 27202.4 154.796 16455 10747.4
8.783038 5189.45 66.9936 5687.65 -498.199
8.816984 1171.89 32.0738 1429.34 -257.454
8.850931 2089.67 43.0118 746.683 1342.99
8.884878 776.565 25.8523 527.026 249.539
8.918825 398.758 18.6854 429.078 -30.3203
8.952772 333.064 17.0857 376.781 -43.7173
8.986719 348.634 17.3612 345.4109 3.22359
9.020666 321.419 16.7287 324.974 -3.55511
9.054613 304.645 16.4775 310.98 -6.33525
9.088559 285.199 15.5797 300.682 -15.4831
9.122506 274.239 15.504 293.191 -18.9518
9.156453 292.076 16.0816 287.129 4.9469
9.1904 281.356 15.591 281.833 -0.476367
9.224347 267.382 15.2816 262.658 4.72433
9.258294 322.572 16.9892 257.702 64.8699
9.292241 272.805 15.2981 257.0533 15.7518
9.326188 265.086 15.168 256.519 8.56757
9.360134 256.862 14.9742 256.185 0.677058
9.394081 247.198 14.503 256.239 -9.04091
9.428028 256.705 14.9151 257.149 -0.444013
9.461975 271.622 15.4411 261.105 10.5178
9.495922 263.587 15.0087 274.627 -11.0406
9.529869 309.182 16.3528 377.248 -68.066
9.563816 307.713 16.3634 323.497 -15.7835
9.597763 293.934 15.8994 352.776 -58.8413
9.631709 291.702 15.8043 564.42 -272.718
9.665656 297.524 16.1385 330.093 -32.5683
9.699603 291.656 15.9913 302.27 -10.6134
9.73355 286.152 15.7887 301.144 -14.9924
9.767497 337.59 17.2693 307.659 29.931
9.801444 296.376 16.0731 319.8 -23.42351
9.835391 327.023 16.8352 339.058 -12.0355
9.869338 337.391 17.1914 370.018 -32.6271
9.903284 418.696 19.3311 425.069 -6.37288
9.937231 510.744 20.92061 556.714 -45.9707
9.971178 1562.95 36.9772 1043.02 519.927
10.0051 1157.09 29.8384 1053.8 103.292
10.0391 1788.89 36.468 1648.92 139.975
10.073 5993.51 67.2915 5739.9 253.613
10.107 13764.3 102.934 10214.3 3550.03
10.1409 11878 94.2252 11115.7 762.359
10.1749 3693.14 52.9587 2393.88 1299.26
10.2088 2391.52 42.9113 1066.06 1325.45
10.2428 1405.09 32.2541 669.257 735.836
10.2767 822.179 24.9337 499.825 322.354
10.3106 404.653 17.6061 412.119 -7.46604
10.3446 342.43 15.9232 361.268 -18.8381
10.3785 332.108 15.8204 330.217 1.89089
10.4125 308.719 15.3464 312.83 -4.11042
10.4464 328.051 15.7329 313.511 14.5399
10.4804 345.785 16.0613 398.05 -52.2652
10.5143 428.1 17.9911 479.297 -51.1969
10.5483 312.335 15.285 295.586 16.7489
10.5822 317.707 15.4966 263.768 53.9387
10.6162 311.001 15.3813 251.457 59.5437
10.6501 265.262 14.2653 237.322 27.9407
10.6841 254.578 13.8196 217.965 36.6129
10.718 242.352 13.6518 216.689 25.6628
10.752 239.912 13.6104 215.582 24.33008
10.7859 240.335 13.3709 214.748 25.5874
10.81985 260.685 14.0557 214.146 46.5387
10.8538 235.86 13.5323 213.8 22.0601
10.8877 248.708 13.5812 213.807 34.9006
10.9217 243.554 13.4861 214.437 29.1164
10.9556 240.234 13.541 216.54 23.6939
10.9896 244.957 13.4075 224.074 20.8833
11.0235 291.102 14.7936 265.047 26.0548
11.0575 255.168 13.9404 258.988 -3.819275
11.0914 273.447 14.25 238.143 35.3044
11.1254 354.339 16.3717 276.12 78.219
11.1593 283.346 14.6694 519.145 -235.798
11.1933 229.039 13.044 302.4152 -73.376
11.2272 232.262 13.126 244.294 -12.0318
11.2612 229.06 13.2152 252.154 -23.0933
11.2951 217.616 12.7571 383.331 -165.715
11.3291 249.339 13.6812 315.077 -65.7384
11.363 212.205 12.7066 233.092 -20.8867
11.3969 202.283 12.3246 217.383 -15.0998
11.4309 211.015 12.5555 211.95 -0.935496
11.4648 224.475 13.1086 209.445 15.0307
11.4988 214.966 12.74 208.098 6.86829
11.5327 223.811 12.9437 207.3209 16.4896
11.5667 209.269 12.6644 206.871 2.39786
11.6006 210.522 12.6605 206.635 3.88703
11.6346 215.96 12.7168 206.474 9.48552
11.6685 196.345 12.175 206.526 -10.1804
11.7025 213.312 12.828 206.686 6.62564
11.7364 222.708 12.8677 206.956 15.7521
11.7704 203.511 12.4419 207.044 -3.5338
11.8043 216.43 12.89931 207.628 8.80253
11.8383 225.857 12.8598 208.443 17.4139
11.8722 231.502 13.235 209.667 21.8353
11.90615 221.783 12.9745 211.738 10.0447
11.9401 227.1915 13.0075 215.972 11.2191
11.974 236.391 13.2977 228.327 8.06414
12.008 227.609 12.5791 288.521 -60.9121
12.0419 265.216 13.2669 341.887 -76.671
12.0759 226.382 12.4007 238.982 -12.5997
12.1098 234.137 12.6513 221.343 12.7937
12.1438 248.686 12.9032 216.733 31.9531
12.1777 214.869 12.052 215.274 -0.404931
12.2117 208.898 11.9646 214.949 -6.05126
12.2456 216.558 12.0439 215.16 1.39787
12.2796 210.008 11.8447 215.88 -5.8719
12.3135 311.628 14.6383 216.83 94.7982
12.3475 225.816 12.3561 217.908 7.90788
12.3814 202.266 11.6474 219.314 -17.0483
12.4154 207.061 11.8658 221.215 -14.1539
12.4493 229.476 12.4931 224.38 5.09598
12.4832 211.223 11.928 229.465 -18.2422
12.5172 216.901 12.139 238.699 -21.7987
12.5511 217.172 12.227 264.504 -47.3317
12.5851 317.92 14.7262 384.202 -66.282
12.619 351.615 15.5494 435.916 -84.3016
12.653 341.513 15.3715 341.371 0.141607
12.6869 359.082 15.55 438.244 -79.1613
12.7209 385.657 16.1829 450.062 -64.4047
12.7548 305.714 14.4912 286.508 19.2065
12.7888 280.768 13.6499 254.319 26.4495
12.8227 267.67 13.5121 247.208 20.4615
12.8567 288.341 14.1832 249.041 39.2997
12.8906 324.342 14.7147 261.331 63.0118
12.9246 388.701 16.2587 310.446 78.255
12.9585 396.439 16.5741 514.029 -117.591
12.99245 415.513 16.6771 376.202 39.3108
13.0264 349.156 15.3528 292.162 56.9945
13.0603 333.718 15.0347 295.987 37.7309
13.0943 403.781 16.46 372.367 31.414
13.1282 529.443 18.8884 694.494 -165.0506
13.1622 921.876 25.0627 705.592 216.284
13.1961 622.295 20.459 533.205 89.0893
13.2301 365.207 15.6108 325.49 39.7171
13.264 320.276 14.7547 286.689 33.587
13.298 371.827 15.8187 300.186 71.6409
13.3319 343.213 15.1702 393.997 -50.784
13.3659 283.094 13.8981 387.398 -104.303
13.3998 284.627 13.9843 278.154 6.47352
13.4338 269.135 13.4374 252.59 16.5451
13.4677 278.9668 13.8532 244.521 34.4455
13.5017 279.899 13.9088 240.983 38.9156
13.5356 259.0045 13.2197 239.164 19.8407
13.5695 281.681 13.9157 245.117 36.5637
13.6035 237.55 12.8082 249.069 -11.5189
13.6374 247.284 12.8465 250.077 -2.79297
13.6714 265.009 13.3729 251.283 13.726
13.7053 319.016 14.8939 253.41 65.606
13.7393 246.036 12.883 256.358 -10.3221
13.7732 268.215 13.5281 260.656 7.55946
13.8072 262.055 13.3964 267.67 -5.61583
13.8411 290.083 13.952 281.788 8.29574
13.8751 306.124 14.3795 327.983 -21.8595
13.909 340.377 15.2835 419.189 -78.8127
13.943 401.844 16.4284 393.777 8.06693
13.9769 394.925 16.3314 430.419 -35.4941
14.0109 666.539 20.3824 407.03 259.508
14.0448 344.243 14.446 357.155 -12.9128
14.07875 358.327 14.8467 350.38 7.94682
14.1127 339.725 14.5217 377.101 -37.3758
14.1466 385.549 15.3445 431.511 -45.9618
14.1806 455.633 16.6269 535.533 -79.8995
14.2145 611.602 19.4245 758.39 -146.788
14.2485 1171.39 26.835 1367.88 -196.49
14.2824 4802.96 54.078 3806.08 996.881
14.3164 9172.7 75.2274 7370.13 1802.57
14.3503 4841.26 54.7517 5082.56 -241.307
14.3843 1524.48 30.4962 1862.38 -337.896
14.4182 876.578 23.283 895.415 -18.8365
14.4522 748.756 21.6625 588.956 159.8
14.4861 925.19 23.7573 456.283 468.907
14.5201 720.105 21.0669 388.901 331.205
14.554 369.366 15.2694 356.897 12.4688
14.588 352.165 14.5982 369.567 -17.402
14.6219 312.2 13.8736 335.019 -22.8191
14.6558 274.386 13.1019 296.3039 -21.9182
14.6898 284.805 13.157 281.382 3.42359
14.7237 264.321 12.7382 273.262 -8.94091
14.7577 244.916 12.3767 268.772 -23.8561
14.7916 267.448 12.7053 267.201 0.247056
14.8256 256.494 12.5072 269.65 -13.1562
14.8595 259.603 12.7212 279.956 -20.3534
14.8935 306.559 13.5409 313.521 -6.96223
14.9274 475.983 17.0268 451.183 24.8004
14.9614 819.458 22.627 647.467 171.991
14.9953 784.995 21.9146 541.8 243.195
15.0293 340.668 14.4545 338.523 2.145
15.0632 269.593 12.9766 276.223 -6.63056
15.0972 234.993 11.9637 256.149 -21.15533
15.1311 270.482 12.8105 258.37 12.1125
15.16505 256.271 12.5664 242.914 13.3578
15.199 250.589 12.3904 236.375 14.214
15.2329 262.683 12.6112 234.501 28.1822
15.2669 251.89 12.4294 234.846 17.0447
15.3008 268.456 12.963 238.215 30.2415
15.3348 239.732 12.1092 250.091 -10.3591
15.3687 240.167 12.1924 280.319 -40.1519
15.4027 234.427 12.0671 356.094 -121.667
15.4366 232.472 11.9434 311.841 -79.3693
15.4706 239.26 12.1514 252.414 -13.1538
15.5045 216.573 11.6272 237.137 -20.5638
15.5385 220.961 11.5359 231.748 -10.7861
15.5724 230.394 11.9012 229.274 1.12027
15.6064 238.089 12.2514 227.953 10.1365
15.6403 222.535 11.5315 227.185 -4.64926
15.6743 213.149 11.4444 226.723 -13.574
15.7082 215.759 11.6574 226.452 -10.6924
15.7421 225.809 11.688 226.364 -0.555517
15.7761 206.839 11.3372 225.976 -19.1364
15.81 216.803 11.6421 225.871 -9.068
15.844 213.78 11.3544 226.007 -12.227
15.8779 206.8265 11.2284 226.196 -19.3696
15.9119 211.177 11.3912 227.279 -16.1018
15.9458 218.748 11.5433 229.836 -11.0877
15.9798 219.411 11.5391 230.831 -11.4203
16.0137 240.293 11.7236 231.605 8.68863
16.0477 241.833 11.696 232.54 9.29395
16.0816 227.895 11.2651 233.715 -5.81959
16.1156 237.434 11.5789 235.296 2.13761
16.1495 223.288 11.267 237.698 -14.4096
16.1835 259.076 12.0047 242.216 16.8604
16.2174 239.9 11.6648 254.38 -14.4803
16.25135 261.473 12.2549 288.912 -27.4386
16.2853 266.732 12.2118 289.196 -22.4637
16.3192 226.383 11.3138 263.133 -36.7492
16.3532 229.816 11.4215 251.604 -21.7877
16.3871 229.384 11.2544 250.402 -21.0183
16.4211 257.136 12.0178 252.43 4.70566
16.455 245.652 11.8907 256.557 -10.9048
16.489 260.155 12.0125 263.329 -3.17411
16.5229 220.99 11.1458 275.445 -54.4551
16.5569 271.274 12.3945 304.478 -33.204
16.5908 369.106 14.3195 357.8 11.3067
16.6248 344.128 13.9298 342.462 1.66613
16.6587 593.293 18.4372 364.615 228.678
16.6927 416.532 15.2259 441.763 -25.2307
16.7266 688.114 19.657 655.278 32.8357
16.7606 1220.13 26.3629 1331.07 -110.935
16.7945 2034.14 33.5986 2051.82 -17.6737
16.8284 2774.65 39.4577 2548.12 226.528
16.8624 1132.06 25.3564 1247.69 -115.63
16.8963 592.813 18.2283 626.038 -33.2245
16.9303 539.365 17.3072 436.377 102.988
16.9642 495.29 16.7521 360.725 134.565
16.9982 516.893 17.0568 323.994 192.899
17.0321 502.956 16.7238 304.141 198.815
17.0661 387.479 14.7539 293.069 94.4109
17.1 275.185 12.4991 287.548 -12.3634
17.134 284.707 12.5369 286.875 -2.16758
17.1679 286.568 12.6737 294.271 -7.70215
17.2019 396.342 15.0202 325 71.3418
17.2358 433.469 15.4995 358.141 75.3283
17.2698 419.371 15.3633 350.567 68.8031
17.3037 379.026 14.7539 323.158 55.8686
17.33765 363.779 14.1691 313.24 50.5386
17.3716 339.664 13.9045 322.934 16.7296
17.4055 367.852 14.5822 350.755 17.0965
17.4395 398.919 14.905 411.197 -12.2786
17.4734 488.442 16.6076 551.482 -63.0403
17.5074 868.484 22.3007 906.649 -38.1654
17.5413 3181.05 42.0614 2132.42 1048.63
17.5753 1672.52 30.7087 2022.67 -350.147
17.6092 1291.64 27.249 1090.45 201.186
17.6432 469.741 16.1419 587.038 -117.297
17.6771 384.951 14.6655 422.286 -37.3352
17.7111 351.157 14.13 360.424 -9.26653
17.745 483.271 16.4096 347.8 135.471
17.779 474.118 16.2177 337.985 136.132
17.8129 342.371 13.8832 299.47 42.9018
17.8469 271.437 12.3021 282.844 -11.4079
17.8808 261.174 12.0793 275.116 -13.942
17.9147 243.706 11.752 271.111 -27.4056
17.9487 263.933 12.2879 269.59 -5.65686
17.9826 276.608 12.4465 270.762 5.84599
18.0166 262.174 12.1426 276.69 -14.5161
18.0505 286.036 12.7317 294.526 -8.49098
18.0845 305.787 13.0319 345.048 -39.2615
18.1184 572.17 17.9573 475.691 96.479
18.1524 394.238 14.9661 418.922 -24.6844
18.1863 332.68 13.5315 336.878 -4.1986
18.2203 274.66 12.4169 309.74 -35.0808
18.2542 253.817 12.0276 286.929 -33.1118
18.2882 222.709 11.0759 273.087 -50.3786
18.3221 258.178 12.0802 262.952 -4.77419
18.3561 239.235 11.7869 254.622 -15.3873
18.39 232.604 11.381 250.819 -18.2153
18.42395 219.22 11.1576 248.491 -29.2704
18.4579 227.622 11.4683 246.985 -19.3638
18.4918 235.928 11.4421 243.585 -7.65636
18.5258 215.504 11.0134 242.303 -26.7997
18.5597 214.114 11.0515 241.64 -27.5264
18.5937 247.394 11.7811 241.224 6.16977
18.6276 213.392 10.941 241.331 -27.939
18.6616 210.081 10.93 242.99 -32.9088
18.6955 219.996 11.0695 246.081 -26.0851
18.7295 214.403 10.9124 250.895 -36.4925
18.7634 237.741 11.5797 251.089 -13.3481
18.7974 228.501 11.3186 245.001 -16.4995
18.8313 206.356 10.7587 238.798 -32.4422
18.8653 204.281 10.7898 236.345 -32.064
18.8992 215.681 11.0827 235.016 -19.3351
18.9332 228.744 11.2643 234.089 -5.34485
18.9671 187.308 10.3149 233.377 -46.0694
19.001 223.204 11.3581 232.827 -9.62297
19.035 213.892 10.8218 232.497 -18.6041
19.0689 226.213 11.2615 232.651 -6.43757
19.1029 271.231 12.3865 233.97 37.2619
19.1368 311.596 13.0928 238.988 72.6082
19.1708 348.955 13.9729 237.091 111.863
19.2047 247.719 11.8372 233.217 14.5023
19.2387 228.237 11.1958 232.475 -4.23744
19.2726 280.31 12.5678 234.557 45.7524
19.3066 258.529 12.2153 239.465 19.0645
19.3405 248.593 11.7996 253.107 -4.5138
19.3745 233.016 11.4643 275.234 -42.2177
19.4084 271.044 12.4748 276.436 -5.39192
19.4424 256.167 11.952 295.107 -38.9402
19.4763 429.385 15.5168 367.296 62.0882
19.51025 323.009 13.5612 320.706 2.30288
19.5442 235.257 11.4303 261.815 -26.5582
19.5781 225.778 11.2575 242.212 -16.4349
19.6121 236.717 11.5854 237.205 -0.48817
19.646 247.575 11.8189 240.726 6.84891
19.68 244.101 11.6403 240.044 4.0569
19.7139 220.665 11.2133 231.594 -10.9293
19.7479 212.072 10.9342 226.4 -14.3276
19.7818 241.375 11.5688 224.503 16.8716
19.8158 217.809 11.1106 223.781 -5.971336
19.8497 203.664 10.7881 223.707 -20.0423
19.8837 209.365 10.7898 224.187 -14.8219
19.9176 212.347 10.908 225.372 -13.0253
19.9516 236.094 11.6015 227.819 8.27505
19.9855 215.212 10.8429 233.393 -18.1814
20.0195 258.694 11.9942 242.386 16.308
20.0534 238.65 11.621 249.969 -11.3197
20.0873 253.746 11.7969 270.146 -16.4002
20.1213 251.997 11.8776 268.739 -16.7414
20.1552 283.298 12.6375 271.789 11.509
20.1892 327.251 13.417 304.225 23.0261
20.2231 453.149 15.9941 402.251 50.8975
20.2571 442.334 15.9166 582.366 -140.032
20.291 757.748 20.6164 587.957 169.792
20.325 841.414 21.8178 870.837 -29.4238
20.3589 1423.84 28.643 703.668 720.1717
20.3929 480.266 16.3581 409.091 71.1755
20.4268 372.606 14.5003 313.065 59.5409
20.4608 363.485 14.363 280.683 82.8015
20.4947 314.129 13.1963 265.696 48.4329
20.5287 309.092 13.1993 264.938 44.1543
20.5626 288.403 12.8148 253.304 35.0988
20.59655 263.731 12.1772 237.634 26.0969
20.6305 241.26 11.5838 231.352 9.90815
20.6644 225.425 11.2698 228.837 -3.41153
20.6984 225.609 11.331 228.504 -2.89533
20.7323 227.072 11.2749 230.834 -3.7625
20.7663 238.882 11.6324 239.121 -0.239405
20.8002 219.124 11.1334 258.564 -39.4407
20.8342 238.252 11.5228 271.321 -33.0681
20.8681 228.22 11.3706 261.522 -33.3019
20.9021 239.99 11.6638 243.577 -3.58653
20.936 209.968 10.7464 232.754 -22.7862
20.97 209.577 10.8493 229.101 -19.5242
21.0039 235.536 11.5795 229.162 6.37342
21.0379 229.896 11.2296 232.276 -2.37942
21.0718 256.53 12.0297 240.654 15.8753
21.1058 233.1 11.5646 243.886 -10.7866
21.1397 232.116 11.3319 234.056 -1.93956
21.1736 228.41 11.3072 230.677 -2.26624
21.2076 236.386 11.6422 230.589 5.79627
21.2415 244.549 11.7294 232.478 12.0709
21.2755 244.13 11.7048 237.789 6.34123
21.3094 263.152 12.26881 252.465 10.6874
21.3434 246.541 11.7244 264.163 -17.6216
21.3773 250.048 11.7985 245.98 4.06819
21.4113 251.801 11.9858 237.599 14.2017
21.4452 244.069 11.7417 235.969 8.09959
21.4792 241.736 11.6777 236.644 5.0922
21.5131 255.977 12.12 239.532 16.4454
21.5471 240.661 11.6727 245.098 -4.43725
21.581 251.57 11.9347 257.744 -6.17414
21.615 261.12 12.16 285.72 -24.5999
21.6489 273.35 12.4637 297.2442 -23.8946
21.68285 265.746 12.1593 289.112 -23.3668
21.7168 248.838 11.9068 282.679 -33.8407
21.7507 264.019 12.2231 296.812 -32.7934
21.7847 253.684 11.872 285.544 -31.8603
21.8186 283.114 12.6315 268.705 14.4085
21.8526 243.664 11.7544 265.925 -22.2613
21.8865 259.84 11.9354 270.276 -10.436
21.9205 290.747 12.7166 281.516 9.23158
21.9544 340.284 13.8922 305.798 34.4868
21.9884 341.114 13.6781 345.8992 -4.78517
22.0223 368.421 14.3377 383.41 -14.9892
22.0563 450.418 16.0281 453.658 -3.23972
22.0902 553.317 17.4937 640.067 -86.7507
22.1242 885.705 22.2415 995.163 -109.458
22.1581 823.535 21.711 997.819 -174.283
22.1921 605.983 18.3705 704.401 -98.4182
22.226 383.871 14.7033 470.997 -87.1262
22.2599 339.567 13.9127 365.467 -25.9002
22.2939 313.357 13.237 322.845 -9.48796
22.3278 338.816 13.8254 304.602 34.2134
22.3618 321.246 13.5132 298.574 22.6725
22.3957 316.232 13.3642 303.361 12.8709
22.4297 369.799 14.4018 318.548 51.2506
22.4636 340.906 13.9588 314.638 26.2678
22.4976 300.174 13.013 316.87 -16.6959
22.5315 352.815 14.015 334.7 18.1151
22.5655 340.606 13.9069 371.408 -30.8021
22.5994 441.759 15.8934 441.802 -0.0430383
22.6334 818.865 21.3686 608.047 210.818
22.6673 914.416 22.7364 998.113 -83.6966
22.7013 1319.52 27.5935 1381.02 -61.5017
22.7352 1720.66 30.9851 1735.8 -15.1409
22.76915 1742.39 31.3343 1554.8 187.59
22.8031 879.676 22.4058 947.799 -68.1224
22.837 532.442 17.0933 575.39 -42.9476
22.871 405.405 15.0538 427.974 -22.5689
22.9049 386.254 14.7382 363.448 22.8061
22.9389 391.77 14.6499 333.211 58.559
22.9728 396.423 14.8737 311.826 84.5974
23.0068 355.49 14.2016 294.718 60.7719
23.0407 364.655 14.1418 288.126 76.5289
23.0747 348.944 13.9842 293.237 55.7073
23.1086 316.515 13.4407 314.598 1.91704
23.1426 335.711 13.6838 313.17 22.5409
23.1765 349.103 14.0272 308.049 41.054
23.2105 330.149 13.8377 312.869 17.2801
23.2444 304.283 13.1252 289.197 15.0861
23.2784 306.793 13.1066 276.354 30.4391
23.3123 258.332 12.1502 268.495 -10.1635
23.3462 246.545 11.7597 256.354 -9.80941
23.3802 250.896 11.8723 249.567 1.329
23.4141 248.28 11.8387 246.111 2.16865
23.4481 233.642 11.4899 244.099 -10.4576
23.482 234.915 11.4425 242.906 -7.99101
23.516 240.437 11.6268 242.491 -2.05354
23.5499 233.102 11.5617 243.401 -10.2995
23.5839 266.805 12.1494 247.712 19.0928
23.6178 236.528 11.5865 254.148 -17.6206
23.6518 253.354 12.0977 250.869 2.48493
23.6857 214.539 10.9037 247.873 -33.3338
23.7197 246.315 11.8225 242.35 3.96549
23.7536 220.237 11.2293 239.574 -19.3368
23.7876 246.156 11.6558 238.323 7.83216
23.8215 279.268 12.5175 237.701 41.567
23.85545 249.04 11.8378 237.44 11.5999
23.8894 224.983 11.0202 237.076 -12.0931
23.9233 223.047 11.1161 237.301 -14.254
23.9573 235.542 11.5262 237.518 -1.97554
23.9912 250.305 11.695 239.39 10.9142
24.0252 245.249 11.6849 241.834 3.41479
24.0591 242.936 11.8064 245.753 -2.81681
24.0931 243.674 11.58862 248.635 -4.96157
24.127 245.039 11.7533 255.933 -10.8937
24.161 245.705 11.838 277.719 -32.0137
24.1949 272.399 12.4045 321.922 -49.5227
24.2289 307.78 13.1431 319.082 -11.302
24.2628 317.584 13.4098 292.018 25.5661
24.2968 315.717 13.3492 285.495 30.2212
24.3307 279.068 12.4932 263.537 15.5311
24.3647 254.662 12.0064 252.496 2.16521
24.3986 257.116 12.1551 250.173 6.94319
24.4325 248.74 11.8244 247.108 1.63236
24.4665 236.628 11.5832 245.253 -8.62468
24.5004 236.54 11.666 245.72 -9.17979
24.5344 234.526 11.405 247.831 -13.3046
24.5683 232.372 11.4797 251.947 -19.5745
24.6023 253.541 12.0726 259.897 -6.35599
24.6362 235.839 11.4355 275.344 -39.5042
24.6702 247.324 11.769 286.844 -39.5194
24.7041 259.409 12.209 288.327 -28.9176
24.7381 278.105 12.38 297.694 -19.5885
24.772 299.752 12.9485 322.632 -22.88
24.806 330.41 13.6686 374.104 -43.6933
24.8399 460.537 15.9443 489.782 -29.2451
24.8739 980.225 23.3972 749.59 230.635
24.9078 1186.96 25.926 1067.55 119.411
24.94175 1272.42 26.4684 1276.19 -3.7744
24.9757 839.001 21.6047 947.188 -108.187
25.0096 617.791 18.7443 616.343 1.44855
25.0436 384.8253 14.6395 438.254 -53.4291
25.0775 323.931 13.503 360.758 -36.8266
25.1115 341.381 13.9065 317.286 24.0949
25.1454 290.163 12.8668 289.765 0.39846
25.1794 291.703 12.8211 275.947 15.7556
25.2133 323.395 13.5683 271.846 51.5482
25.2473 331.575 13.7345 278.366 53.2094
25.2812 316.251 13.3179 284.565 31.6855
25.3152 323.808 13.5238 292.468 31.3397
25.3491 280.369 12.7391 288.784 -8.41446
25.3831 271.287 12.3823 272.802 -1.51489
25.417 277.892 12.5892 271.82 6.07265
25.451 273.381 12.5451 268.13 5.25071
25.4849 251.155 11.8385 254.087 -2.93125
25.5188 241.269 11.6726 245.714 -4.44447
25.5528 262.78 12.2674 240.448 22.3319
25.5867 268.483 12.1877 239.337 29.1461
25.6207 241.438 11.6615 234.517 6.92159
25.6546 257.469 12.0633 230.749 26.72
25.6886 259.33 11.996 230.77 28.5606
25.7225 219.8 11.1394 232.833 -13.0322
25.7565 236.104 11.5631 229.026 7.07772
25.7904 214.979 10.8385 225.681 -10.7018
25.8244 254.803 11.9336 225.536 29.2665
25.8583 248.874 11.864 223.717 25.1574
25.8923 219.0912 10.9315 220.446 -1.35434
25.9262 231.164 11.2933 218.879 12.2849
25.9602 216.058 11.1045 218.412 -2.35481
25.9941 227.152 11.2661 219.218 7.9337
26.02805 224.604 11.1868 222.559 2.04412
26.062 218.807 11.1619 229.998 -11.1906
26.0959 215.189 11.0163 230.654 -15.4653
26.1299 224.108 11.2494 224.693 -0.585079
26.1638 229.21 11.4152 222.401 6.80917
26.1978 214.524 11.0174 223.993 -9.46885
26.2317 239.391 11.5928 228.93 10.4609
26.2657 242.658 11.7567 239.658 3.00015
26.2996 273.795 12.5107 262.508 11.287
26.3336 324.527 13.4272 303.897 20.6303
26.3675 381.914 14.7565 355.504 26.4102
26.4015 436.04 15.7981 440.328 -4.28875
26.4354 442.958 15.6707 507.768 -64.8098
26.4694 484.836 16.5355 602.447 -117.611
26.5033 472.484 16.4527 632.246 -159.762
26.5373 379.653 14.4654 483.863 -104.21
26.5712 293.362 12.8157 340.357 -46.9947
26.6051 241.365 11.7443 274.109 -32.7443
26.6391 229.204 11.2202 245.213 -16.0086
26.673 226.82 11.2511 234.096 -7.27668
26.707 216.43 11.0859 231.313 -14.883
26.7409 236.144 11.4278 225.339 10.805
26.7749 238.276 11.5452 220.907 17.3693
26.8088 256.404 12.0809 216.884 39.52
26.8428 257.378 11.896 214.636 42.7419
26.8767 233.603 11.3902 209.862 23.7411
26.9107 227.273 11.2927 205.8597 21.4128
26.9446 247.962 11.7623 204.252 43.7102
26.9786 227.344 11.2148 201.825 25.5191
27.0125 214.252 10.9856 199.876 14.3766
27.0465 231.842 11.4226 200.99 30.8524
27.0804 207.964 10.7868 203.972 3.99128
27.11435 190.746 10.4214 202.825 -12.0785
27.1483 196.651 10.6289 200.7671 -4.11608
27.1822 209.93 10.8386 201.653 8.27702
27.2162 228.834 11.429 205.654 23.1797
27.2501 216.004 11.0859 215.333 0.671391
27.2841 236.725 11.5303 235.473 1.25174
27.318 239.987 11.6628 250.844 -10.8568
27.352 270.657 12.5049 257.255 13.4015
27.3859 290.828 12.7383 243.555 47.2731
27.4199 223.265 11.1916 223.693 -0.427635
27.4538 226.857 11.4386 213.617 13.2396
27.4878 213.869 10.8772 206.332 7.53648
27.5217 201.992 10.6088 201.774 0.218955
27.5557 212.755 11.0173 199.335 13.4201
27.5896 215.843 10.9125 197.843 18.0003
27.6236 187.259 10.2755 196.781 -9.52151
27.6575 180.166 9.9915 195.966 -15.8004
27.6914 199.028 10.4249 195.4299 3.5985
27.7254 185.584 10.1506 195.481 -9.89728
27.7593 199.438 10.6228 195.829 3.60914
27.7933 161.945 9.4194 193.693 -31.7476
27.8272 191.145 10.305 190.804 0.34084
27.8612 203.268 10.7223 188.746 14.5223
27.8951 197.14 10.4617 187.011 10.1286
27.9291 188.77 10.2545 185.64 3.1305
27.963 211.811 10.9885 185.628 26.1825
27.997 200.442 10.658 187.538 12.9037
28.0309 183.476 10.5644 0 0
28.0649 198.221 11.0976 0 0
28.0988 203.526 11.2616 0 0
28.1328 194.311 10.8882 0 0
28.1667 176.224 10.3651 0 0
28.20065 175.925 10.4981 0 0
28.2346 190.807 10.8053 0 0
28.2685 193.954 10.9679 0 0
28.3025 191.308 11.0065 0 0
28.3364 182.73 10.5287 0 0
28.3704 184.65 10.6621 0 0
28.4043 200.463 11.2097 0 0
28.4383 183.694 10.5033 0 0
28.4722 183.893 10.5407 0 0
28.5062 183.899 10.5975 0 0
28.5401 166.366 9.9492 0 0
28.5741 185.581 10.578 0 0
28.608 194.423 10.9773 0 0
28.642 182.801 10.4417 0 0
28.6759 211.659 11.3366 0 0
28.7099 202.23 11.156 0 0
28.7438 211.118 11.2378 0 0
28.7777 250.241 12.3211 0 0
28.8117 389.812 15.5558 0 0
28.8456 398.766 15.6615 0 0
28.8796 406.496 15.7041 0 0
28.9135 370.357 15.0274 0 0
28.9475 260.282 12.7096 0 0
28.9814 224.464 11.6656 0 0
29.0154 221.376 11.6808 0 0
29.0493 199.447 11.1627 0 0
29.0833 224.335 11.6043 0 0
29.1172 214.382 11.5106 0 0
29.1512 229.544 11.9202 0 0
29.1851 244.184 12.14362 0 0
29.2191 287.121 13.3269 0 0
29.253 329.239 14.3955 0 0
29.28695 305.104 13.6402 0 0
29.3209 257.811 12.5642 0 0
29.3548 216.395 11.6163 0 0
29.3888 213.149 11.3072 0 0
29.4227 195.227 10.8565 0 0
29.4567 194.859 10.9454 0 0
29.4906 186.254 10.5317 0 0
29.5246 206.833 11.1617 0 0
29.5585 199.802 11.0935 0 0
29.5925 196.79 10.8288 0 0
29.6264 195.504 10.8637 0 0
29.6604 182.753 10.5244 0 0
29.6943 195.525 10.8365 0 0
29.7283 174.804 10.2706 0 0
29.7622 191.986 10.7867 0 0
29.7962 206.295 11.1699 0 0
29.8301 197.067 10.9308 0 0
29.864 183.281 10.6353 0 0
29.898 183.731 10.6634 0 0
29.9319 196.032 10.8899 0 0
29.9659 186.444 10.6628 0 0
29.9998 184.209 11.2441 0 0
30.0338 202.166 11.5948 0 0
30.0677 220.077 12.2551 0 0
30.1017 247.618 13.0519 0 0
30.1356 279.719 13.5651 0 0
30.1696 305.477 14.401 0 0
30.2035 375.154 16.1391 0 0
30.2375 357.975 15.4493 0 0
30.2714 355.391 15.521 0 0
30.3054 277.043 13.8323 0 0
30.3393 244.725 12.6781 0 0
30.37325 228.741 12.4099 0 0
30.4072 217.184 12.1858 0 0
30.4411 222.275 12.1628 0 0
30.4751 219.116 12.1218 0 0
30.509 251.341 13.0978 0 0
30.543 269.551 13.3956 0 0
30.5769 358.943 15.4623 0 0
30.6109 543.073 19.2498 0 0
30.6448 628.984 20.437 0 0
30.6788 526.359 18.6886 0 0
30.7127 446.642 17.3693 0 0
30.7467 377.993 15.8393 0 0
30.7806 288.604 13.8056 0 0
30.8146 252.009 13.1248 0 0
30.8485 229.54 12.5065 0 0
30.8825 197.679 11.4536 0 0
30.9164 217.988 12.0921 0 0
30.9503 231.495 12.637 0 0
30.9843 219.787 12.132 0 0
31.0182 232.74 12.5513 0 0
31.0522 234.971 12.6688 0 0
31.0861 217.762 12.0003 0 0
31.1201 189.28 11.3272 0 0
31.154 202.761 11.7131 0 0
31.188 194.39 11.3585 0 0
31.2219 196.95 11.518 0 0
31.2559 195.075 11.5471 0 0
31.2898 204.559 11.6592 0 0
31.3238 187.498 11.2107 0 0
31.3577 173.908 10.9071 0 0
31.3917 190.891 11.2211 0 0
31.4256 208.984 11.8442 0 0
31.45955 193.121 11.5375 0 0
31.4935 186.479 11.1946 0 0
31.5274 174.363 10.8201 0 0
31.5614 220.496 12.1768 0 0
31.5953 207.397 11.7914 0 0
31.6293 193.209 11.3225 0 0
31.6632 206.533 11.8075 0 0
31.6972 195.508 11.5005 0 0
31.7311 189.199 11.1271 0 0
31.7651 184.572 11.0701 0 0
31.799 214.486 12.1156 0 0
31.833 227.573 12.312 0 0
31.8669 211.806 11.9721 0 0
31.9009 195.248 11.5529 0 0
31.9348 207.865 11.7179 0 0
31.9688 204.1019 11.7876 0 0
32.0027 194.163 12.1094 0 0
32.0366 207.51 12.288 0 0
32.0706 190.719 11.8892 0 0
32.1045 217.449 12.815 0 0
32.1385 227.605 12.9933 0 0
32.1724 231.819 13.1909 0 0
32.2064 235.977 13.4956 0 0
32.2403 259.471 13.8692 0 0
32.2743 275.856 14.3883 0 0
32.3082 267.839 14.2902 0 0
32.3422 295.877 14.78827 0 0
32.3761 312.31 15.2693 0 0
32.4101 307.162 15.2595 0 0
32.444 266.237 14.0921 0 0
32.478 248.014 13.5447 0 0
32.5119 240.565 13.4218 0 0
32.54585 207.338 12.3743 0 0
32.5798 215.385 12.6672 0 0
32.6137 201.448 12.2528 0 0
32.6477 199.405 12.1045 0 0
32.6816 217.604 12.6794 0 0
32.7156 244.965 13.5585 0 0
32.7495 223.569 12.9442 0 0
32.7835 205.487 12.2599 0 0
32.8174 220.733 12.8674 0 0
32.8514 201.879 12.3538 0 0
32.8853 188.836 11.7894 0 0
32.9193 208.206 12.4819 0 0
32.9532 192.139 12.0852 0 0
32.9872 190.854 11.8163 0 0
33.0211 198.766 12.1315 0 0
33.0551 177.828 11.6617 0 0
33.089 190.692 11.7771 0 0
33.1229 219.778 12.8597 0 0
33.1569 199.15 12.2642 0 0
33.1908 194.213 11.9364 0 0
33.2248 199.243 12.2217 0 0
33.2587 207.735 12.5442 0 0
33.2927 206.335 12.3167 0 0
33.3266 197.69 12.0679 0 0
33.3606 216.615 12.7529 0 0
33.3945 206.452 12.3538 0 0
33.4285 211.399 12.4878 0 0
33.4624 206.347 12.3806 0 0
33.4964 258.114 13.842 0 0
33.5303 249.977 13.5322 0 0
33.5643 264.629 14.0488 0 0
33.5982 262.377 13.9992 0 0
33.63215 230.054 12.9258 0 0
33.6661 228.694 13.0119 0 0
33.7 208.335 12.5804 0 0
33.734 216.415 12.576 0 0
33.7679 226.642 13.0216 0 0
33.8019 238.811 13.3862 0 0
33.8358 232.279 12.9976 0 0
33.8698 268.672 14.1657 0 0
33.9037 278.96 14.461 0 0
33.9377 280.293 14.3565 0 0
33.9716 299.59 14.9261 0 0
34.0056 332.864 16.7845 0 0
34.0395 320.439 16.1798 0 0
34.0735 271.786 15.029 0 0
34.1074 257.606 14.6009 0 0
34.1414 226.045 13.6784 0 0
34.1753 222.183 13.518 0 0
34.2092 218.606 13.5912 0 0
34.2432 211.422 13.2218 0 0
34.2771 226.722 13.6544 0 0
34.3111 228.511 13.7784 0 0
34.345 221.39 13.4546 0 0
34.379 230.276 13.77 0 0
34.4129 227.305 13.7792 0 0
34.4469 198.007 12.7684 0 0
34.4808 220.942 13.4166 0 0
34.5148 204.247 13.0425 0 0
34.5487 192.081 12.5775 0 0
34.5827 200.776 12.7083 0 0
34.6166 201.553 12.9637 0 0
34.6506 195.315 12.8398 0 0
34.6845 200.371 12.8733 0 0
34.71845 216.134 13.3993 0 0
34.7524 195.297 12.8159 0 0
34.7863 190.512 12.452 0 0
34.8203 207.756 13.1193 0 0
34.8542 192.466 12.728 0 0
34.8882 190.696 12.3441 0 0
34.9221 221.603 13.5162 0 0
34.9561 197.525 12.9113 0 0
34.99 203.769 12.9252 0 0
35.024 214.827 13.2817 0 0
35.0579 225.358 13.7797 0 0
35.0919 205.199 12.8979 0 0
35.1258 234.16 13.8641 0 0
35.1598 228.696 13.8344 0 0
35.1937 202.909 12.9475 0 0
35.2277 215.337 13.3765 0 0
35.2616 202.309 12.9724 0 0
35.2955 210.48 13.2438 0 0
35.3295 185.257 12.3254 0 0
35.3634 191.756 12.6186 0 0
35.3974 200.574 12.8111 0 0
35.4313 212.892 13.2073 0 0
35.4653 207.526 13.0812 0 0
35.4992 228.478 13.8434 0 0
35.5332 268.592 14.8032 0 0
35.5671 205.091 13.0324 0 0
35.6011 219.826 13.5793 0 0
35.635 223.105 13.4456 0 0
35.669 228.185 13.8687 0 0
35.7029 181.9872 12.3311 0 0
35.7369 211.655 13.0875 0 0
35.7708 185.982 12.403 0 0
35.80475 191.411 12.6417 0 0
35.8387 194.883 12.5837 0 0
35.8726 170.449 11.8511 0 0
35.9066 213.611 13.3819 0 0
35.9405 208.426 13.06112 0 0
35.9745 186.55 12.3897 0 0
36.0084 188.685 13.2577 0 0
36.0424 204.386 13.717 0 0
36.0763 180.606 12.8871 0 0
36.1103 182.994 13.0475 0 0
36.1442 186.261 13.0468 0 0
36.1782 191.015 13.0955 0 0
36.2121 162.881 12.2564 0 0
36.2461 181.605 12.9791 0 0
36.28 181.369 12.8462 0 0
36.314 186.963 13.0458 0 0
36.3479 176.732 12.82 0 0
36.3818 194.643 13.3032 0 0
36.4158 191.581 13.2965 0 0
36.4497 198.674 13.6693 0 0
36.4837 222.907 14.2205 0 0
36.5176 216.602 14.2648 0 0
36.5516 206.179 13.9236 0 0
36.5855 216.686 14.007 0 0
36.6195 219.348 14.163 0 0
36.6534 208.761 14.0386 0 0
36.6874 205.284 13.58137 0 0
36.7213 225.997 14.4182 0 0
36.7553 205.441 13.7822 0 0
36.7892 198.859 13.4029 0 0
36.8232 195.728 13.3628 0 0
36.8571 195.677 13.5902 0 0
36.89105 191.615 13.2046 0 0
36.925 214.375 14.0336 0 0
36.9589 223.408 14.4664 0 0
36.9929 239.378 14.8628 0 0
37.0268 260.147 15.4133 0 0
37.0608 268.284 15.7427 0 0
37.0947 267.01 15.6758 0 0
37.1287 224.837 14.3351 0 0
37.1626 212.971 14.0229 0 0
37.1966 199.416 13.6159 0 0
37.2305 187.844 13.0092 0 0
37.2645 183.708 12.9113 0 0
37.2984 205.059 13.8039 0 0
37.3324 195.444 13.2804 0 0
37.3663 179.326 12.8737 0 0
37.4003 167.127 12.5072 0 0
37.4342 185.771 12.929 0 0
37.4681 176.245 12.7169 0 0
37.5021 191.396 13.3862 0 0
37.536 187.433 12.9743 0 0
37.57 175.79 12.6881 0 0
37.6039 172.6 12.6577 0 0
37.6379 188.157 12.9615 0 0
37.6718 192.821 13.3428 0 0
37.7058 194.483 13.482 0 0
37.7397 166.795 12.256 0 0
37.7737 199.468 13.5494 0 0
37.8076 182.259 13.0409 0 0
37.8416 183.77 12.9654 0 0
37.8755 178.774 12.7938 0 0
37.9095 195.15 13.5384 0 0
37.9434 193.974 13.4272 0 0
37.97735 196.0951 13.4414 0 0
38.0113 175.921 13.8736 0 0
38.0452 187.46 14.2721 0 0
38.0792 195.856 14.5276 0 0
38.1131 190.422 14.4187 0 0
38.1471 189.655 14.4719 0 0
38.181 192.757 14.3813 0 0
38.215 200.661 14.7598 0 0
38.2489 190.038 14.5356 0 0
38.2829 186.92 14.186 0 0
38.3168 194.649 14.5572 0 0
38.3508 201.9079 14.8945 0 0
38.3847 213.214 15.1685 0 0
38.4187 230.622 15.8311 0 0
38.4526 258.877 16.9088 0 0
38.4866 288.565 17.4802 0 0
38.5205 289.26 17.7545 0 0
38.5544 254.664 16.9216 0 0
38.5884 257.321 16.5976 0 0
38.6223 212.362 15.2237 0 0
38.6563 201.161 14.8505 0 0
38.6902 196.111 14.5229 0 0
38.7242 182.087 14.1314 0 0
38.7581 202.548 15.0396 0 0
38.7921 174.566 13.697 0 0
38.826 176.31 13.8527 0 0
38.86 165.958 13.5338 0 0
38.8939 178.116 14.0494 0 0
38.9279 186.827 14.2477 0 0
38.9618 162.383 13.3076 0 0
38.9958 193.616 14.6322 0 0
39.0297 193.344 14.5684 0 0
39.06365 211.736 15.2387 0 0
39.0976 174.11 13.89 0 0
39.1315 183.047 14.0554 0 0
39.1655 164.855 13.2781 0 0
39.1994 155.938 13.028 0 0
39.2334 151.723 12.8185 0 0
39.2673 172.118 13.6606 0 0
39.3013 171.274 13.6666 0 0
39.3352 188.46 14.1886 0 0
39.3692 165.267 13.3886 0 0
39.4031 202.622 15.0502 0 0
39.4371 183.402 13.8881 0 0
39.471 192.481 14.4495 0 0
39.505 199.446 14.8323 0 0
39.5389 198.323 14.6724 0 0
39.5729 186.116 14.2469 0 0
39.6068 196.687 14.6937 0 0
39.6407 176.602 13.6974 0 0
39.6747 152.232 12.7407 0 0
39.7086 167.249 13.6909 0 0
39.7426 192.641 14.3424 0 0
39.7765 173.883 13.7142 0 0
39.8105 189.596 14.4446 0 0
39.8444 160.4 13.2584 0 0
39.8784 153.338 12.8709 0 0
39.9123 170.713 13.7521 0 0
39.9463 182.449 14.181 0 0
39.9802 181.779 14.069 0 0
40.0142 180.66 15.4014 0 0
40.0481 156.043 14.4782 0 0
40.0821 173.658 15.1065 0 0
40.116 157.88 14.4205 0 0
40.14995 187.301 15.837 0 0
40.1839 171.835 15.0312 0 0
40.2178 185.281 15.7447 0 0
40.2518 186.963 15.8347 0 0
40.2857 175.154 15.0423 0 0
40.3197 162.71 14.6398 0 0
40.3536 160.581 14.7314 0 0
40.3876 163.802 14.7175 0 0
40.4215 182.291 15.3385 0 0
40.4555 142.999 13.7578 0 0
40.4894 148.48 13.9032 0 0
40.5234 158.821 14.4202 0 0
40.5573 182.536 15.5685 0 0
40.5913 155.313 14.2632 0 0
40.6252 168.81 14.917 0 0
40.6592 140.555 13.7806 0 0
40.6931 173.303 15.303 0 0
40.727 163.075 14.4551 0 0
40.761 182.681 15.6232 0 0
40.7949 176.91 15.3 0 0
40.8289 154.13 14.2172 0 0
40.8628 174.594 15.2927 0 0
40.8968 155.555 14.4936 0 0
40.9307 185.597 15.5493 0 0
40.9647 151.13 14.0402 0 0
40.9986 157.423 14.4601 0 0
41.0326 155.136 14.1655 0 0
41.0665 160.06 14.5268 0 0
41.1005 160.677 14.7174 0 0
41.1344 194.91 15.89 0 0
41.1684 147.33 13.9599 0 0
41.2023 168.852 14.9445 0 0
41.23625 139.161 13.3334 0 0
41.2702 165.082 14.7962 0 0
41.3041 160.764 14.6036 0 0
41.3381 165.287 14.6451 0 0
41.372 139.586 13.6472 0 0
41.406 160.572 14.5937 0 0
41.4399 171.863 15.1017 0 0
41.4739 163.531 14.6884 0 0
41.5078 165.461 14.9308 0 0
41.5418 157.125 14.2474 0 0
41.5757 170.995 15.0436 0 0
41.6097 157.481 14.3919 0 0
41.6436 156.927 14.4348 0 0
41.6776 138.322 13.3936 0 0
41.7115 143.023 13.8618 0 0
41.7455 158.595 14.4947 0 0
41.7794 146.116 13.9126 0 0
41.8133 144.202 13.9119 0 0
41.8473 147.871 13.9584 0 0
41.8812 156.606 14.3691 0 0
41.9152 152.004 14.1239 0 0
41.9491 165.611 14.9878 0 0
41.9831 164.995 14.6508 0 0
42.017 173.289 16.5961 0 0
42.051 158.432 15.96 0 0
42.0849 157.126 15.6784 0 0
42.1189 142.558 14.9938 0 0
42.1528 157.046 15.9617 0 0
42.1868 170.342 16.2261 0 0
42.2207 187.128 17.1257 0 0
42.2547 163.846 16.1959 0 0
42.2886 153.972 15.5676 0 0
42.32255 153.269 15.5881 0 0
42.3565 180.51 17.0715 0 0
42.3904 153.017 15.4846 0 0
42.4244 183.286 17.0651 0 0
42.4583 170.288 16.5601 0 0
42.4923 190.915 17.3315 0 0
42.5262 192.224 17.359 0 0
42.5602 181.044 17.0192 0 0
42.5941 190.178 17.3512 0 0
42.6281 194.957 17.5474 0 0
42.662 208.299 18.2852 0 0
42.696 185.915 17.2511 0 0
42.7299 177.697 16.6991 0 0
42.7639 167.601 16.4112 0 0
42.7978 193.035 17.396 0 0
42.8318 171.952 16.4489 0 0
42.8657 157.504 15.7697 0 0
42.8996 162.5 16.1813 0 0
42.9336 176.589 16.6003 0 0
42.9675 145.544 15.3288 0 0
43.0015 179.525 17.0154 0 0
43.0354 163.355 15.9518 0 0
43.0694 157.435 15.7269 0 0
43.1033 157.829 15.8105 0 0
43.1373 158.903 15.6739 0 0
43.1712 161.111 15.92 0 0
43.2052 172.605 16.6456 0 0
43.2391 141.596 14.924 0 0
43.2731 138.87 14.8088 0 0
43.307 150.234 15.4474 0 0
43.341 164.826 16.0071 0 0
43.3749 168.874 16.4101 0 0
43.40885 132.454 14.6723 0 0
43.4428 143.495 15.1484 0 0
43.4767 150.39 15.44429 0 0
43.5107 166.35 16.3693 0 0
43.5446 176.739 16.72 0 0
43.5786 151.3465 15.426 0 0
43.6125 142.657 15.0371 0 0
43.6465 163.909 16.1549 0 0
43.6804 165.376 15.9646 0 0
43.7144 142.713 15.1148 0 0
43.7483 155.168 15.8968 0 0
43.7823 156.689 15.5937 0 0
43.8162 172.361 16.6155 0 0
43.8502 167.657 16.4054 0 0
43.8841 159.975 15.8117 0 0
43.9181 154.619 15.7469 0 0
43.952 168.413 16.3925 0 0
43.9859 179.307 16.5869 0 0
44.0199 181.738 19.9737 0 0
44.0538 157.004 18.6777 0 0
44.0878 170.474 19.1393 0 0
44.1217 148.537 18.0418 0 0
44.1557 159.069 18.8295 0 0
44.1896 149.827 18.1167 0 0
44.2236 141.163 17.6238 0 0
44.2575 140.514 17.818 0 0
44.2915 158.621 18.7264 0 0
44.3254 143.531 17.8032 0 0
44.3594 129.245 16.9999 0 0
44.3933 157.242 18.7242 0 0
44.4273 116.94 16.0164 0 0
44.4612 147.608 18.1283 0 0
44.49515 137.261 17.5276 0 0
44.5291 143.766 17.6833 0 0
44.563 144.654 17.8676 0 0
44.597 163.452 19.1681 0 0
44.6309 139.501 17.481 0 0
44.6649 138.484 17.5471 0 0
44.6988 152.346 18.5324 0 0
44.7328 146.38 17.9304 0 0
44.7667 128.519 16.9155 0 0
44.8007 157.609 18.859 0 0
44.8346 162.309 18.7653 0 0
44.8686 185.497 20.1972 0 0
44.9025 144.476 17.9808 0 0
44.9365 166.427 19.0107 0 0
44.9704 171.158 19.3745 0 0
45.0044 175.92 19.7631 0 0
45.0383 148.871 17.9685 0 0
45.0722 166.829 19.1647 0 0
45.1062 206.421 21.5142 0 0
45.1401 156.735 18.5066 0 0
45.1741 181.274 20.0075 0 0
45.208 160.684 18.9558 0 0
45.242 136.439 17.3455 0 0
45.2759 135.768 17.2828 0 0
45.3099 150.237 18.2691 0 0
45.3438 161.506 18.9485 0 0
45.3778 140.423 17.4624 0 0
45.4117 135.643 17.2995 0 0
45.4457 140.122 17.6134 0 0
45.4796 149.506 18.0447 0 0
45.5136 157.314 18.731 0 0
45.5475 138.97 17.5627 0 0
45.58145 143.763 17.7728 0 0
45.6154 132.069 17.2104 0 0
45.6493 192.594 20.8205 0 0
45.6833 143.025 17.6918 0 0
45.7172 152.082 18.3953 0 0
45.7512 127.021 16.9049 0 0
45.7851 174.396 19.3701 0 0
45.8191 134.09 17.1923 0 0
45.853 156.374 18.7496 0 0
45.887 164.237 18.8868 0 0
45.9209 126.488 16.6215 0 0
45.9549 178.188 19.8754 0 0
45.9888 158.573 18.6159 0 0
46.0228 187.153 24.7504 0 0
46.0567 153.367 22.6199 0 0
46.0907 131.212 20.7574 0 0
46.1246 152.474 22.4313 0 0
46.1585 137.049 21.3385 0 0
46.1925 133.07 20.8859 0 0
46.2264 162.32 23.0368 0 0
46.2604 172.345 23.8899 0 0
46.2943 199.114 25.394 0 0
46.3283 151.412 22.0722 0 0
46.3622 135.823 21.1104 0 0
46.3962 144.934 21.9702 0 0
46.4301 138.124 21.188 0 0
46.4641 160.645 22.8651 0 0
46.498 172.943 23.9516 0 0
46.532 144.1 21.6213 0 0
46.5659 165.838 23.3364 0 0
46.5999 139.473 21.5902 0 0
46.6338 136.793 21.1141 0 0
46.66775 107.838 18.7417 0 0
46.7017 153.195 22.6321 0 0
46.7356 154.457 22.2809 0 0
46.7696 163.948 23.1388 0 0
46.8035 136.223 21.2469 0 0
46.8375 143.534 21.3975 0 0
46.8714 134.073 20.9985 0 0
46.9054 191.363 25.165 0 0
46.9393 140.928 21.3169 0 0
46.9733 93.5396 17.3975 0 0
47.0072 116.452 19.5759 0 0
47.0412 131.786 20.6915 0 0
47.0751 116.411 19.4784 0 0
47.1091 132.963 20.9825 0 0
47.143 159.959 22.8536 0 0
47.177 170.319 23.5927 0 0
47.2109 134.348 21.1106 0 0
47.2448 106.088 18.622 0 0
47.2788 150.201 22.1108 0 0
47.3127 116.04 19.5737 0 0
47.3467 109.158 19.0622 0 0
47.3806 149.365 21.9099 0 0
47.4146 168.3 23.4227 0 0
47.4485 117.796 19.7587 0 0
47.4825 135.188 20.7862 0 0
47.5164 131.89 20.8537 0 0
47.5504 175.183 24.1446 0 0
47.5843 153.816 22.2538 0 0
47.6183 143.723 21.7961 0 0
47.6522 155.211 22.7846 0 0
47.6862 162.469 22.8954 0 0
47.7201 148.83 22.1782 0 0
47.75405 153.381 22.6835 0 0
47.788 192.028 24.8723 0 0
47.8219 137.264 21.1323 0 0
47.8559 115.889 19.4548 0 0
47.8898 138.483 21.1639 0 0
47.9238 141.585 21.4466 0 0
47.9577 150.507 22.2736 0 0
47.9917 174.71 23.8451 0 0
48.0256 180.122 34.2246 0 0
48.0596 110.495 27.1755 0 0
48.0935 100.222 26.0351 0 0
48.1275 160.079 32.6687 0 0
48.1614 108.799 26.9849 0 0
48.1954 153.609 32.5787 0 0
48.2293 160.966 32.7329 0 0
48.2633 101.423 26.3338 0 0
48.2972 142.694 31.4112 0 0
48.3311 110.619 27.0201 0 0
48.3651 121.636 28.5017 0 0
48.399 128.837 29.6401 0 0
48.433 164.503 32.8297 0 0
48.4669 126.4371 29.0804 0 0
48.5009 111.19 27.5389 0 0
48.5348 102.4952 25.9032 0 0
48.5688 133.093 29.7786 0 0
48.6027 125.924 29.1882 0 0
48.6367 160.253 32.4128 0 0
48.6706 173.34 33.971 0 0
48.7046 137.264 30.5749 0 0
48.7385 156.185 32.0879 0 0
48.7725 153.671 31.8694 0 0
48.8064 195.109 36.3465 0 0
48.84035 176.148 34.2585 0 0
48.8743 154.17 31.8211 0 0
48.9082 124.095 28.7391 0 0
48.9422 136.931 30.17221 0 0
48.9761 137.321 29.8949 0 0
49.0101 136.784 30.2053 0 0
49.044 68.524 21.3155 0 0
49.078 169.727 33.4885 0 0
49.1119 158.358 32.7668 0 0
49.1459 110.917 27.5797 0 0
49.1798 150.235 31.6025 0 0
49.2138 111.025 27.3461 0 0
49.2477 121.81 28.9425 0 0
49.2817 143.279 30.7988 0 0
49.3156 142.994 30.741 0 0
49.3496 129.865 29.5961 0 0
49.3835 120.805 28.0033 0 0
49.4174 175.159 34.131 0 0
49.4514 110.928 27.5449 0 0
49.4853 138.91 30.3269 0 0
49.5193 111.184 27.3449 0 0
49.5532 106.914 26.9924 0 0
49.5872 132.74 29.8392 0 0
49.6211 103.422 26.2443 0 0
49.6551 150.236 31.9247 0 0
49.689 118.119 27.8678 0 0
49.723 137.321 30.2047 0 0
49.7569 111.789 27.4937 0 0
49.7909 158.693 32.3858 0 0
49.8248 81.708 22.9916 0 0
49.8588 147.937 31.2361 0 0
49.8927 135.11 29.9463 0 0
49.92665 166.785 32.9218 0 0
49.9606 140.979 30.5786 0 0
49.9945 140.634 30.7237 0 0